[
    [
        {
            "button_pressed": "0",
            "internal_node_id": "0.0-0.0",
            "rt": 1898.5850000026403,
            "stimulus": "Let us adjust the volume one more time for louder sounds. Please lower down your volume first.",
            "subject": "Andy",
            "task_url": "hZboaeGYcysN2rEmRc_vAEFL3VO2WjaP",
            "time_elapsed": 1900,
            "trial_index": 0,
            "trial_type": "html-button-response"
        },
        {
            "button_pressed": "0",
            "internal_node_id": "0.0-1.0",
            "rt": 2752.779999998893,
            "stimulus": "https://speech-in-noise-test.s3.us-east-2.amazonaws.com/audios/wordInNoise/follow-up/volume.wav",
            "subject": "Andy",
            "task_url": "hZboaeGYcysN2rEmRc_vAEFL3VO2WjaP",
            "time_elapsed": 5257,
            "trial_index": 1,
            "trial_type": "hari-audio-button-response"
        },
        {
            "button_pressed": "0",
            "internal_node_id": "0.0-2.0",
            "rt": 3537.4100000008184,
            "stimulus": "Is the right headphone in your right ear, and the left headphone in your left ear? It is very important!",
            "subject": "Andy",
            "task_url": "hZboaeGYcysN2rEmRc_vAEFL3VO2WjaP",
            "time_elapsed": 9397,
            "trial_index": 2,
            "trial_type": "html-button-response"
        },
        {
            "button_pressed": "0",
            "internal_node_id": "0.0-3.0",
            "rt": 1767.8350000023784,
            "stimulus": "This section is an extended version of previous task, which is clicking on the <strong>WORD</strong> prompted by the voice. <p></p>In cases where you can not hear the word, just give your best guess.",
            "subject": "Andy",
            "task_url": "hZboaeGYcysN2rEmRc_vAEFL3VO2WjaP",
            "time_elapsed": 11767,
            "trial_index": 3,
            "trial_type": "html-button-response"
        },
        {
            "button_pressed": "0",
            "internal_node_id": "0.0-4.0",
            "rt": 39116.53999999908,
            "stimulus": "When you are ready, click <strong>Continue</strong> to hear the first word.",
            "subject": "Andy",
            "task_url": "hZboaeGYcysN2rEmRc_vAEFL3VO2WjaP",
            "time_elapsed": 51484,
            "trial_index": 4,
            "trial_type": "html-button-response"
        },
        {
            "annot": "{'SNR': '8', 'condition': 'echo-ref'}",
            "button_pressed": "5",
            "cond": 2,
            "correct": true,
            "internal_node_id": "0.0-5.0",
            "rt": 7137.4699999978475,
            "stimulus": "https://speech-in-noise-test.s3.us-east-2.amazonaws.com/audios/wordInNoise/follow-up/echo-ref_8_29_6_Pkii61skZHKYU8DM.wav",
            "subject": "Andy",
            "task_url": "hZboaeGYcysN2rEmRc_vAEFL3VO2WjaP",
            "time_elapsed": 59228,
            "trial_index": 5,
            "trial_type": "hari-audio-button-response",
            "trialnum": 1
        },
        {
            "button_pressed": null,
            "internal_node_id": "0.0-6.0",
            "rt": null,
            "stimulus": "/static/jspsych/img/correct.png",
            "subject": "Andy",
            "task_url": "hZboaeGYcysN2rEmRc_vAEFL3VO2WjaP",
            "time_elapsed": 60337,
            "trial_index": 6,
            "trial_type": "image-button-response"
        },
        {
            "annot": "{'SNR': '-4', 'condition': 'echo-ref'}",
            "button_pressed": "5",
            "cond": 2,
            "correct": true,
            "internal_node_id": "0.0-7.0",
            "rt": 4223.995000000286,
            "stimulus": "https://speech-in-noise-test.s3.us-east-2.amazonaws.com/audios/wordInNoise/follow-up/echo-ref_-4_33_6_5ngbxUax3jqKTlt0.wav",
            "subject": "Andy",
            "task_url": "hZboaeGYcysN2rEmRc_vAEFL3VO2WjaP",
            "time_elapsed": 65167,
            "trial_index": 7,
            "trial_type": "hari-audio-button-response",
            "trialnum": 2
        },
        {
            "button_pressed": null,
            "internal_node_id": "0.0-8.0",
            "rt": null,
            "stimulus": "/static/jspsych/img/correct.png",
            "subject": "Andy",
            "task_url": "hZboaeGYcysN2rEmRc_vAEFL3VO2WjaP",
            "time_elapsed": 66276,
            "trial_index": 8,
            "trial_type": "image-button-response"
        },
        {
            "annot": "{'SNR': '14', 'condition': 'echo-ref'}",
            "button_pressed": "0",
            "cond": 1,
            "correct": true,
            "internal_node_id": "0.0-9.0",
            "rt": 4333.954999998241,
            "stimulus": "https://speech-in-noise-test.s3.us-east-2.amazonaws.com/audios/wordInNoise/follow-up/echo-ref_14_26_1_m6WfPY21Ix2lJ4Bf.wav",
            "subject": "Andy",
            "task_url": "hZboaeGYcysN2rEmRc_vAEFL3VO2WjaP",
            "time_elapsed": 71213,
            "trial_index": 9,
            "trial_type": "hari-audio-button-response",
            "trialnum": 3
        },
        {
            "button_pressed": null,
            "internal_node_id": "0.0-10.0",
            "rt": null,
            "stimulus": "/static/jspsych/img/correct.png",
            "subject": "Andy",
            "task_url": "hZboaeGYcysN2rEmRc_vAEFL3VO2WjaP",
            "time_elapsed": 72319,
            "trial_index": 10,
            "trial_type": "image-button-response"
        },
        {
            "annot": "{'SNR': '-10', 'condition': 'echo-ref'}",
            "button_pressed": "1",
            "cond": 2,
            "correct": true,
            "internal_node_id": "0.0-11.0",
            "rt": 6294.365000001562,
            "stimulus": "https://speech-in-noise-test.s3.us-east-2.amazonaws.com/audios/wordInNoise/follow-up/echo-ref_-10_5_2_9XGIldZvBcPbBmR2.wav",
            "subject": "Andy",
            "task_url": "hZboaeGYcysN2rEmRc_vAEFL3VO2WjaP",
            "time_elapsed": 79219,
            "trial_index": 11,
            "trial_type": "hari-audio-button-response",
            "trialnum": 4
        },
        {
            "button_pressed": null,
            "internal_node_id": "0.0-12.0",
            "rt": null,
            "stimulus": "/static/jspsych/img/correct.png",
            "subject": "Andy",
            "task_url": "hZboaeGYcysN2rEmRc_vAEFL3VO2WjaP",
            "time_elapsed": 80326,
            "trial_index": 12,
            "trial_type": "image-button-response"
        },
        {
            "annot": "{'SNR': '8', 'condition': 'echo-ref'}",
            "button_pressed": "3",
            "cond": 2,
            "correct": true,
            "internal_node_id": "0.0-13.0",
            "rt": 16629.96000000203,
            "stimulus": "https://speech-in-noise-test.s3.us-east-2.amazonaws.com/audios/wordInNoise/follow-up/echo-ref_8_9_4_sFiwHbbTsTPX1ucn.wav",
            "subject": "Andy",
            "task_url": "hZboaeGYcysN2rEmRc_vAEFL3VO2WjaP",
            "time_elapsed": 97559,
            "trial_index": 13,
            "trial_type": "hari-audio-button-response",
            "trialnum": 5
        },
        {
            "button_pressed": null,
            "internal_node_id": "0.0-14.0",
            "rt": null,
            "stimulus": "/static/jspsych/img/correct.png",
            "subject": "Andy",
            "task_url": "hZboaeGYcysN2rEmRc_vAEFL3VO2WjaP",
            "time_elapsed": 98665,
            "trial_index": 14,
            "trial_type": "image-button-response"
        },
        {
            "annot": "{'SNR': '-10', 'condition': 'echo-ref'}",
            "button_pressed": "0",
            "cond": 2,
            "correct": true,
            "internal_node_id": "0.0-15.0",
            "rt": 7716.085000000021,
            "stimulus": "https://speech-in-noise-test.s3.us-east-2.amazonaws.com/audios/wordInNoise/follow-up/echo-ref_-10_39_1_PUeD1fpvwbbIxmRP.wav",
            "subject": "Andy",
            "task_url": "hZboaeGYcysN2rEmRc_vAEFL3VO2WjaP",
            "time_elapsed": 106988,
            "trial_index": 15,
            "trial_type": "hari-audio-button-response",
            "trialnum": 6
        },
        {
            "button_pressed": null,
            "internal_node_id": "0.0-16.0",
            "rt": null,
            "stimulus": "/static/jspsych/img/correct.png",
            "subject": "Andy",
            "task_url": "hZboaeGYcysN2rEmRc_vAEFL3VO2WjaP",
            "time_elapsed": 108094,
            "trial_index": 16,
            "trial_type": "image-button-response"
        },
        {
            "annot": "{'SNR': '-4', 'condition': 'echo-ref'}",
            "button_pressed": "4",
            "cond": 2,
            "correct": true,
            "internal_node_id": "0.0-17.0",
            "rt": 5166.880000000674,
            "stimulus": "https://speech-in-noise-test.s3.us-east-2.amazonaws.com/audios/wordInNoise/follow-up/echo-ref_-4_50_5_shwFEtRiYZwEDPwS.wav",
            "subject": "Andy",
            "task_url": "hZboaeGYcysN2rEmRc_vAEFL3VO2WjaP",
            "time_elapsed": 113866,
            "trial_index": 17,
            "trial_type": "hari-audio-button-response",
            "trialnum": 7
        },
        {
            "button_pressed": null,
            "internal_node_id": "0.0-18.0",
            "rt": null,
            "stimulus": "/static/jspsych/img/correct.png",
            "subject": "Andy",
            "task_url": "hZboaeGYcysN2rEmRc_vAEFL3VO2WjaP",
            "time_elapsed": 114976,
            "trial_index": 18,
            "trial_type": "image-button-response"
        },
        {
            "annot": "{'SNR': '-10', 'condition': 'echo-ref'}",
            "button_pressed": "0",
            "cond": 2,
            "correct": true,
            "internal_node_id": "0.0-19.0",
            "rt": 5989.615000002232,
            "stimulus": "https://speech-in-noise-test.s3.us-east-2.amazonaws.com/audios/wordInNoise/follow-up/echo-ref_-10_34_1_2GYkRNo4zuF0DDVH.wav",
            "subject": "Andy",
            "task_url": "hZboaeGYcysN2rEmRc_vAEFL3VO2WjaP",
            "time_elapsed": 121571,
            "trial_index": 19,
            "trial_type": "hari-audio-button-response",
            "trialnum": 8
        },
        {
            "button_pressed": null,
            "internal_node_id": "0.0-20.0",
            "rt": null,
            "stimulus": "/static/jspsych/img/correct.png",
            "subject": "Andy",
            "task_url": "hZboaeGYcysN2rEmRc_vAEFL3VO2WjaP",
            "time_elapsed": 122680,
            "trial_index": 20,
            "trial_type": "image-button-response"
        },
        {
            "annot": "{'SNR': '2', 'condition': 'echo-ref'}",
            "button_pressed": "0",
            "cond": 2,
            "correct": true,
            "internal_node_id": "0.0-21.0",
            "rt": 5503.609999999753,
            "stimulus": "https://speech-in-noise-test.s3.us-east-2.amazonaws.com/audios/wordInNoise/follow-up/echo-ref_2_22_1_HiIhoQELMF7paaGs.wav",
            "subject": "Andy",
            "task_url": "hZboaeGYcysN2rEmRc_vAEFL3VO2WjaP",
            "time_elapsed": 128787,
            "trial_index": 21,
            "trial_type": "hari-audio-button-response",
            "trialnum": 9
        },
        {
            "button_pressed": null,
            "internal_node_id": "0.0-22.0",
            "rt": null,
            "stimulus": "/static/jspsych/img/correct.png",
            "subject": "Andy",
            "task_url": "hZboaeGYcysN2rEmRc_vAEFL3VO2WjaP",
            "time_elapsed": 129891,
            "trial_index": 22,
            "trial_type": "image-button-response"
        },
        {
            "annot": "{'SNR': '-4', 'condition': 'echo-ref'}",
            "button_pressed": "4",
            "cond": 2,
            "correct": true,
            "internal_node_id": "0.0-23.0",
            "rt": 4994.215000002441,
            "stimulus": "https://speech-in-noise-test.s3.us-east-2.amazonaws.com/audios/wordInNoise/follow-up/echo-ref_-4_35_5_PeajjA7E7v0AzZRT.wav",
            "subject": "Andy",
            "task_url": "hZboaeGYcysN2rEmRc_vAEFL3VO2WjaP",
            "time_elapsed": 135491,
            "trial_index": 23,
            "trial_type": "hari-audio-button-response",
            "trialnum": 10
        },
        {
            "button_pressed": null,
            "internal_node_id": "0.0-24.0",
            "rt": null,
            "stimulus": "/static/jspsych/img/correct.png",
            "subject": "Andy",
            "task_url": "hZboaeGYcysN2rEmRc_vAEFL3VO2WjaP",
            "time_elapsed": 136600,
            "trial_index": 24,
            "trial_type": "image-button-response"
        },
        {
            "annot": "{'SNR': '14', 'condition': 'echo-ref'}",
            "button_pressed": "2",
            "cond": 1,
            "correct": true,
            "internal_node_id": "0.0-25.0",
            "rt": 3576.3499999993655,
            "stimulus": "https://speech-in-noise-test.s3.us-east-2.amazonaws.com/audios/wordInNoise/follow-up/echo-ref_14_43_3_oqhOZCCkjC8eEmFC.wav",
            "subject": "Andy",
            "task_url": "hZboaeGYcysN2rEmRc_vAEFL3VO2WjaP",
            "time_elapsed": 140781,
            "trial_index": 25,
            "trial_type": "hari-audio-button-response",
            "trialnum": 11
        },
        {
            "button_pressed": null,
            "internal_node_id": "0.0-26.0",
            "rt": null,
            "stimulus": "/static/jspsych/img/correct.png",
            "subject": "Andy",
            "task_url": "hZboaeGYcysN2rEmRc_vAEFL3VO2WjaP",
            "time_elapsed": 141887,
            "trial_index": 26,
            "trial_type": "image-button-response"
        },
        {
            "annot": "{'SNR': '2', 'condition': 'echo-ref'}",
            "button_pressed": "2",
            "cond": 2,
            "correct": true,
            "internal_node_id": "0.0-27.0",
            "rt": 3743.7749999990046,
            "stimulus": "https://speech-in-noise-test.s3.us-east-2.amazonaws.com/audios/wordInNoise/follow-up/echo-ref_2_37_3_plRsoSX3huzGolpe.wav",
            "subject": "Andy",
            "task_url": "hZboaeGYcysN2rEmRc_vAEFL3VO2WjaP",
            "time_elapsed": 146236,
            "trial_index": 27,
            "trial_type": "hari-audio-button-response",
            "trialnum": 12
        },
        {
            "button_pressed": null,
            "internal_node_id": "0.0-28.0",
            "rt": null,
            "stimulus": "/static/jspsych/img/correct.png",
            "subject": "Andy",
            "task_url": "hZboaeGYcysN2rEmRc_vAEFL3VO2WjaP",
            "time_elapsed": 147344,
            "trial_index": 28,
            "trial_type": "image-button-response"
        },
        {
            "annot": "{'SNR': '2', 'condition': 'echo-ref'}",
            "button_pressed": "5",
            "cond": 2,
            "correct": true,
            "internal_node_id": "0.0-29.0",
            "rt": 2627.540000001318,
            "stimulus": "https://speech-in-noise-test.s3.us-east-2.amazonaws.com/audios/wordInNoise/follow-up/echo-ref_2_17_6_Fy4UW9uNKYbO1ZEv.wav",
            "subject": "Andy",
            "task_url": "hZboaeGYcysN2rEmRc_vAEFL3VO2WjaP",
            "time_elapsed": 150576,
            "trial_index": 29,
            "trial_type": "hari-audio-button-response",
            "trialnum": 13
        },
        {
            "button_pressed": null,
            "internal_node_id": "0.0-30.0",
            "rt": null,
            "stimulus": "/static/jspsych/img/correct.png",
            "subject": "Andy",
            "task_url": "hZboaeGYcysN2rEmRc_vAEFL3VO2WjaP",
            "time_elapsed": 151684,
            "trial_index": 30,
            "trial_type": "image-button-response"
        },
        {
            "annot": "{'SNR': '2', 'condition': 'echo-ref'}",
            "button_pressed": "2",
            "cond": 2,
            "correct": true,
            "internal_node_id": "0.0-31.0",
            "rt": 2736.430000000837,
            "stimulus": "https://speech-in-noise-test.s3.us-east-2.amazonaws.com/audios/wordInNoise/follow-up/echo-ref_2_40_3_IjUpEzxPwBHFCb91.wav",
            "subject": "Andy",
            "task_url": "hZboaeGYcysN2rEmRc_vAEFL3VO2WjaP",
            "time_elapsed": 155024,
            "trial_index": 31,
            "trial_type": "hari-audio-button-response",
            "trialnum": 14
        },
        {
            "button_pressed": null,
            "internal_node_id": "0.0-32.0",
            "rt": null,
            "stimulus": "/static/jspsych/img/correct.png",
            "subject": "Andy",
            "task_url": "hZboaeGYcysN2rEmRc_vAEFL3VO2WjaP",
            "time_elapsed": 156129,
            "trial_index": 32,
            "trial_type": "image-button-response"
        },
        {
            "annot": "{'SNR': '8', 'condition': 'echo-ref'}",
            "button_pressed": "1",
            "cond": 2,
            "correct": true,
            "internal_node_id": "0.0-33.0",
            "rt": 4486.789999999019,
            "stimulus": "https://speech-in-noise-test.s3.us-east-2.amazonaws.com/audios/wordInNoise/follow-up/echo-ref_8_31_2_hCWTDaPteUWcLfq3.wav",
            "subject": "Andy",
            "task_url": "hZboaeGYcysN2rEmRc_vAEFL3VO2WjaP",
            "time_elapsed": 161218,
            "trial_index": 33,
            "trial_type": "hari-audio-button-response",
            "trialnum": 15
        },
        {
            "button_pressed": null,
            "internal_node_id": "0.0-34.0",
            "rt": null,
            "stimulus": "/static/jspsych/img/correct.png",
            "subject": "Andy",
            "task_url": "hZboaeGYcysN2rEmRc_vAEFL3VO2WjaP",
            "time_elapsed": 162322,
            "trial_index": 34,
            "trial_type": "image-button-response"
        },
        {
            "annot": "{'SNR': '8', 'condition': 'echo-ref'}",
            "button_pressed": "3",
            "cond": 2,
            "correct": true,
            "internal_node_id": "0.0-35.0",
            "rt": 12396.500000002561,
            "stimulus": "https://speech-in-noise-test.s3.us-east-2.amazonaws.com/audios/wordInNoise/follow-up/echo-ref_8_25_4_JX77Z4OE99rS5Fq6.wav",
            "subject": "Andy",
            "task_url": "hZboaeGYcysN2rEmRc_vAEFL3VO2WjaP",
            "time_elapsed": 175322,
            "trial_index": 35,
            "trial_type": "hari-audio-button-response",
            "trialnum": 16
        },
        {
            "button_pressed": null,
            "internal_node_id": "0.0-36.0",
            "rt": null,
            "stimulus": "/static/jspsych/img/correct.png",
            "subject": "Andy",
            "task_url": "hZboaeGYcysN2rEmRc_vAEFL3VO2WjaP",
            "time_elapsed": 176428,
            "trial_index": 36,
            "trial_type": "image-button-response"
        },
        {
            "annot": "{'SNR': '14', 'condition': 'echo-ref'}",
            "button_pressed": "1",
            "cond": 1,
            "correct": true,
            "internal_node_id": "0.0-37.0",
            "rt": 3923.7600000014936,
            "stimulus": "https://speech-in-noise-test.s3.us-east-2.amazonaws.com/audios/wordInNoise/follow-up/echo-ref_14_14_2_Xreh2055wG7VFpcv.wav",
            "subject": "Andy",
            "task_url": "hZboaeGYcysN2rEmRc_vAEFL3VO2WjaP",
            "time_elapsed": 180957,
            "trial_index": 37,
            "trial_type": "hari-audio-button-response",
            "trialnum": 17
        },
        {
            "button_pressed": null,
            "internal_node_id": "0.0-38.0",
            "rt": null,
            "stimulus": "/static/jspsych/img/correct.png",
            "subject": "Andy",
            "task_url": "hZboaeGYcysN2rEmRc_vAEFL3VO2WjaP",
            "time_elapsed": 182068,
            "trial_index": 38,
            "trial_type": "image-button-response"
        },
        {
            "annot": "{'SNR': '-4', 'condition': 'echo-ref'}",
            "button_pressed": "3",
            "cond": 2,
            "correct": true,
            "internal_node_id": "0.0-39.0",
            "rt": 3796.1250000007567,
            "stimulus": "https://speech-in-noise-test.s3.us-east-2.amazonaws.com/audios/wordInNoise/follow-up/echo-ref_-4_18_4_stLQusPXaa44KrqF.wav",
            "subject": "Andy",
            "task_url": "hZboaeGYcysN2rEmRc_vAEFL3VO2WjaP",
            "time_elapsed": 186470,
            "trial_index": 39,
            "trial_type": "hari-audio-button-response",
            "trialnum": 18
        },
        {
            "button_pressed": null,
            "internal_node_id": "0.0-40.0",
            "rt": null,
            "stimulus": "/static/jspsych/img/correct.png",
            "subject": "Andy",
            "task_url": "hZboaeGYcysN2rEmRc_vAEFL3VO2WjaP",
            "time_elapsed": 187577,
            "trial_index": 40,
            "trial_type": "image-button-response"
        },
        {
            "annot": "{'SNR': '-10', 'condition': 'echo-ref'}",
            "button_pressed": "4",
            "cond": 2,
            "correct": true,
            "internal_node_id": "0.0-41.0",
            "rt": 3111.799999998766,
            "stimulus": "https://speech-in-noise-test.s3.us-east-2.amazonaws.com/audios/wordInNoise/follow-up/echo-ref_-10_15_5_0ccU28SRjh9kV3H1.wav",
            "subject": "Andy",
            "task_url": "hZboaeGYcysN2rEmRc_vAEFL3VO2WjaP",
            "time_elapsed": 191293,
            "trial_index": 41,
            "trial_type": "hari-audio-button-response",
            "trialnum": 19
        },
        {
            "button_pressed": null,
            "internal_node_id": "0.0-42.0",
            "rt": null,
            "stimulus": "/static/jspsych/img/correct.png",
            "subject": "Andy",
            "task_url": "hZboaeGYcysN2rEmRc_vAEFL3VO2WjaP",
            "time_elapsed": 192399,
            "trial_index": 42,
            "trial_type": "image-button-response"
        },
        {
            "annot": "{'SNR': '14', 'condition': 'echo-ref'}",
            "button_pressed": "1",
            "cond": 1,
            "correct": true,
            "internal_node_id": "0.0-43.0",
            "rt": 2248.2750000017404,
            "stimulus": "https://speech-in-noise-test.s3.us-east-2.amazonaws.com/audios/wordInNoise/follow-up/echo-ref_14_42_2_RFyzr8z6Sd26Q4xI.wav",
            "subject": "Andy",
            "task_url": "hZboaeGYcysN2rEmRc_vAEFL3VO2WjaP",
            "time_elapsed": 195252,
            "trial_index": 43,
            "trial_type": "hari-audio-button-response",
            "trialnum": 20
        },
        {
            "button_pressed": null,
            "internal_node_id": "0.0-44.0",
            "rt": null,
            "stimulus": "/static/jspsych/img/correct.png",
            "subject": "Andy",
            "task_url": "hZboaeGYcysN2rEmRc_vAEFL3VO2WjaP",
            "time_elapsed": 196360,
            "trial_index": 44,
            "trial_type": "image-button-response"
        }
    ],
    [
        {
            "button_pressed": "0",
            "internal_node_id": "0.0-0.0",
            "rt": 2835.80499998061,
            "stimulus": "Let us adjust the volume one more time for louder sounds. Please lower down your volume first.",
            "subject": "5f107aa051372032695c8e2f",
            "task_url": "hZboaeGYcysN2rEmRc_vAEFL3VO2WjaP",
            "time_elapsed": 2838,
            "trial_index": 0,
            "trial_type": "html-button-response"
        },
        {
            "button_pressed": "0",
            "internal_node_id": "0.0-1.0",
            "rt": 6493.635000020731,
            "stimulus": "https://speech-in-noise-test.s3.us-east-2.amazonaws.com/audios/wordInNoise/follow-up/volume.wav",
            "subject": "5f107aa051372032695c8e2f",
            "task_url": "hZboaeGYcysN2rEmRc_vAEFL3VO2WjaP",
            "time_elapsed": 9934,
            "trial_index": 1,
            "trial_type": "hari-audio-button-response"
        },
        {
            "button_pressed": "0",
            "internal_node_id": "0.0-2.0",
            "rt": 3269.540000008419,
            "stimulus": "Is the right headphone in your right ear, and the left headphone in your left ear? It is very important!",
            "subject": "5f107aa051372032695c8e2f",
            "task_url": "hZboaeGYcysN2rEmRc_vAEFL3VO2WjaP",
            "time_elapsed": 13807,
            "trial_index": 2,
            "trial_type": "html-button-response"
        },
        {
            "button_pressed": "0",
            "internal_node_id": "0.0-3.0",
            "rt": 2757.3649999685585,
            "stimulus": "This section is an extended version of previous task, which is clicking on the <strong>WORD</strong> prompted by the voice. <p></p>In cases where you can not hear the word, just give your best guess.",
            "subject": "5f107aa051372032695c8e2f",
            "task_url": "hZboaeGYcysN2rEmRc_vAEFL3VO2WjaP",
            "time_elapsed": 17167,
            "trial_index": 3,
            "trial_type": "html-button-response"
        },
        {
            "button_pressed": "0",
            "internal_node_id": "0.0-4.0",
            "rt": 812.8800000413321,
            "stimulus": "When you are ready, click <strong>Continue</strong> to hear the first word.",
            "subject": "5f107aa051372032695c8e2f",
            "task_url": "hZboaeGYcysN2rEmRc_vAEFL3VO2WjaP",
            "time_elapsed": 18583,
            "trial_index": 4,
            "trial_type": "html-button-response"
        },
        {
            "annot": "{'SNR': '8', 'condition': 'echo-ref'}",
            "button_pressed": "5",
            "cond": 2,
            "correct": true,
            "internal_node_id": "0.0-5.0",
            "rt": 2277.029999997467,
            "stimulus": "https://speech-in-noise-test.s3.us-east-2.amazonaws.com/audios/wordInNoise/follow-up/echo-ref_8_29_6_Pkii61skZHKYU8DM.wav",
            "subject": "5f107aa051372032695c8e2f",
            "task_url": "hZboaeGYcysN2rEmRc_vAEFL3VO2WjaP",
            "time_elapsed": 21464,
            "trial_index": 5,
            "trial_type": "hari-audio-button-response",
            "trialnum": 1
        },
        {
            "button_pressed": null,
            "internal_node_id": "0.0-6.0",
            "rt": null,
            "stimulus": "/static/jspsych/img/correct.png",
            "subject": "5f107aa051372032695c8e2f",
            "task_url": "hZboaeGYcysN2rEmRc_vAEFL3VO2WjaP",
            "time_elapsed": 22570,
            "trial_index": 6,
            "trial_type": "image-button-response"
        },
        {
            "annot": "{'SNR': '-4', 'condition': 'echo-ref'}",
            "button_pressed": "5",
            "cond": 2,
            "correct": true,
            "internal_node_id": "0.0-7.0",
            "rt": 2434.4050000072457,
            "stimulus": "https://speech-in-noise-test.s3.us-east-2.amazonaws.com/audios/wordInNoise/follow-up/echo-ref_-4_33_6_5ngbxUax3jqKTlt0.wav",
            "subject": "5f107aa051372032695c8e2f",
            "task_url": "hZboaeGYcysN2rEmRc_vAEFL3VO2WjaP",
            "time_elapsed": 25609,
            "trial_index": 7,
            "trial_type": "hari-audio-button-response",
            "trialnum": 2
        },
        {
            "button_pressed": null,
            "internal_node_id": "0.0-8.0",
            "rt": null,
            "stimulus": "/static/jspsych/img/correct.png",
            "subject": "5f107aa051372032695c8e2f",
            "task_url": "hZboaeGYcysN2rEmRc_vAEFL3VO2WjaP",
            "time_elapsed": 26716,
            "trial_index": 8,
            "trial_type": "image-button-response"
        },
        {
            "annot": "{'SNR': '14', 'condition': 'echo-ref'}",
            "button_pressed": "0",
            "cond": 1,
            "correct": true,
            "internal_node_id": "0.0-9.0",
            "rt": 2602.1549999713898,
            "stimulus": "https://speech-in-noise-test.s3.us-east-2.amazonaws.com/audios/wordInNoise/follow-up/echo-ref_14_26_1_m6WfPY21Ix2lJ4Bf.wav",
            "subject": "5f107aa051372032695c8e2f",
            "task_url": "hZboaeGYcysN2rEmRc_vAEFL3VO2WjaP",
            "time_elapsed": 29921,
            "trial_index": 9,
            "trial_type": "hari-audio-button-response",
            "trialnum": 3
        },
        {
            "button_pressed": null,
            "internal_node_id": "0.0-10.0",
            "rt": null,
            "stimulus": "/static/jspsych/img/correct.png",
            "subject": "5f107aa051372032695c8e2f",
            "task_url": "hZboaeGYcysN2rEmRc_vAEFL3VO2WjaP",
            "time_elapsed": 31027,
            "trial_index": 10,
            "trial_type": "image-button-response"
        },
        {
            "annot": "{'SNR': '-10', 'condition': 'echo-ref'}",
            "button_pressed": "4",
            "cond": 2,
            "correct": false,
            "internal_node_id": "0.0-11.0",
            "rt": 3003.3999999868684,
            "stimulus": "https://speech-in-noise-test.s3.us-east-2.amazonaws.com/audios/wordInNoise/follow-up/echo-ref_-10_5_2_9XGIldZvBcPbBmR2.wav",
            "subject": "5f107aa051372032695c8e2f",
            "task_url": "hZboaeGYcysN2rEmRc_vAEFL3VO2WjaP",
            "time_elapsed": 34634,
            "trial_index": 11,
            "trial_type": "hari-audio-button-response",
            "trialnum": 4
        },
        {
            "button_pressed": null,
            "internal_node_id": "0.0-12.0",
            "rt": null,
            "stimulus": "/static/jspsych/img/wrong.png",
            "subject": "5f107aa051372032695c8e2f",
            "task_url": "hZboaeGYcysN2rEmRc_vAEFL3VO2WjaP",
            "time_elapsed": 35739,
            "trial_index": 12,
            "trial_type": "image-button-response"
        },
        {
            "annot": "{'SNR': '8', 'condition': 'echo-ref'}",
            "button_pressed": "3",
            "cond": 2,
            "correct": true,
            "internal_node_id": "0.0-13.0",
            "rt": 2571.9150000368245,
            "stimulus": "https://speech-in-noise-test.s3.us-east-2.amazonaws.com/audios/wordInNoise/follow-up/echo-ref_8_9_4_sFiwHbbTsTPX1ucn.wav",
            "subject": "5f107aa051372032695c8e2f",
            "task_url": "hZboaeGYcysN2rEmRc_vAEFL3VO2WjaP",
            "time_elapsed": 38914,
            "trial_index": 13,
            "trial_type": "hari-audio-button-response",
            "trialnum": 5
        },
        {
            "button_pressed": null,
            "internal_node_id": "0.0-14.0",
            "rt": null,
            "stimulus": "/static/jspsych/img/correct.png",
            "subject": "5f107aa051372032695c8e2f",
            "task_url": "hZboaeGYcysN2rEmRc_vAEFL3VO2WjaP",
            "time_elapsed": 40019,
            "trial_index": 14,
            "trial_type": "image-button-response"
        },
        {
            "annot": "{'SNR': '-10', 'condition': 'echo-ref'}",
            "button_pressed": "3",
            "cond": 2,
            "correct": false,
            "internal_node_id": "0.0-15.0",
            "rt": 2428.844999987632,
            "stimulus": "https://speech-in-noise-test.s3.us-east-2.amazonaws.com/audios/wordInNoise/follow-up/echo-ref_-10_39_1_PUeD1fpvwbbIxmRP.wav",
            "subject": "5f107aa051372032695c8e2f",
            "task_url": "hZboaeGYcysN2rEmRc_vAEFL3VO2WjaP",
            "time_elapsed": 43051,
            "trial_index": 15,
            "trial_type": "hari-audio-button-response",
            "trialnum": 6
        },
        {
            "button_pressed": null,
            "internal_node_id": "0.0-16.0",
            "rt": null,
            "stimulus": "/static/jspsych/img/wrong.png",
            "subject": "5f107aa051372032695c8e2f",
            "task_url": "hZboaeGYcysN2rEmRc_vAEFL3VO2WjaP",
            "time_elapsed": 44157,
            "trial_index": 16,
            "trial_type": "image-button-response"
        },
        {
            "annot": "{'SNR': '-4', 'condition': 'echo-ref'}",
            "button_pressed": "4",
            "cond": 2,
            "correct": true,
            "internal_node_id": "0.0-17.0",
            "rt": 3307.600000000093,
            "stimulus": "https://speech-in-noise-test.s3.us-east-2.amazonaws.com/audios/wordInNoise/follow-up/echo-ref_-4_50_5_shwFEtRiYZwEDPwS.wav",
            "subject": "5f107aa051372032695c8e2f",
            "task_url": "hZboaeGYcysN2rEmRc_vAEFL3VO2WjaP",
            "time_elapsed": 48069,
            "trial_index": 17,
            "trial_type": "hari-audio-button-response",
            "trialnum": 7
        },
        {
            "button_pressed": null,
            "internal_node_id": "0.0-18.0",
            "rt": null,
            "stimulus": "/static/jspsych/img/correct.png",
            "subject": "5f107aa051372032695c8e2f",
            "task_url": "hZboaeGYcysN2rEmRc_vAEFL3VO2WjaP",
            "time_elapsed": 49174,
            "trial_index": 18,
            "trial_type": "image-button-response"
        },
        {
            "annot": "{'SNR': '-10', 'condition': 'echo-ref'}",
            "button_pressed": "3",
            "cond": 2,
            "correct": false,
            "internal_node_id": "0.0-19.0",
            "rt": 5092.620000010356,
            "stimulus": "https://speech-in-noise-test.s3.us-east-2.amazonaws.com/audios/wordInNoise/follow-up/echo-ref_-10_34_1_2GYkRNo4zuF0DDVH.wav",
            "subject": "5f107aa051372032695c8e2f",
            "task_url": "hZboaeGYcysN2rEmRc_vAEFL3VO2WjaP",
            "time_elapsed": 54869,
            "trial_index": 19,
            "trial_type": "hari-audio-button-response",
            "trialnum": 8
        },
        {
            "button_pressed": null,
            "internal_node_id": "0.0-20.0",
            "rt": null,
            "stimulus": "/static/jspsych/img/wrong.png",
            "subject": "5f107aa051372032695c8e2f",
            "task_url": "hZboaeGYcysN2rEmRc_vAEFL3VO2WjaP",
            "time_elapsed": 55975,
            "trial_index": 20,
            "trial_type": "image-button-response"
        },
        {
            "annot": "{'SNR': '2', 'condition': 'echo-ref'}",
            "button_pressed": "0",
            "cond": 2,
            "correct": true,
            "internal_node_id": "0.0-21.0",
            "rt": 2820.479999994859,
            "stimulus": "https://speech-in-noise-test.s3.us-east-2.amazonaws.com/audios/wordInNoise/follow-up/echo-ref_2_22_1_HiIhoQELMF7paaGs.wav",
            "subject": "5f107aa051372032695c8e2f",
            "task_url": "hZboaeGYcysN2rEmRc_vAEFL3VO2WjaP",
            "time_elapsed": 59399,
            "trial_index": 21,
            "trial_type": "hari-audio-button-response",
            "trialnum": 9
        },
        {
            "button_pressed": null,
            "internal_node_id": "0.0-22.0",
            "rt": null,
            "stimulus": "/static/jspsych/img/correct.png",
            "subject": "5f107aa051372032695c8e2f",
            "task_url": "hZboaeGYcysN2rEmRc_vAEFL3VO2WjaP",
            "time_elapsed": 60502,
            "trial_index": 22,
            "trial_type": "image-button-response"
        },
        {
            "annot": "{'SNR': '-4', 'condition': 'echo-ref'}",
            "button_pressed": "4",
            "cond": 2,
            "correct": true,
            "internal_node_id": "0.0-23.0",
            "rt": 2196.7749999603257,
            "stimulus": "https://speech-in-noise-test.s3.us-east-2.amazonaws.com/audios/wordInNoise/follow-up/echo-ref_-4_35_5_PeajjA7E7v0AzZRT.wav",
            "subject": "5f107aa051372032695c8e2f",
            "task_url": "hZboaeGYcysN2rEmRc_vAEFL3VO2WjaP",
            "time_elapsed": 63303,
            "trial_index": 23,
            "trial_type": "hari-audio-button-response",
            "trialnum": 10
        },
        {
            "button_pressed": null,
            "internal_node_id": "0.0-24.0",
            "rt": null,
            "stimulus": "/static/jspsych/img/correct.png",
            "subject": "5f107aa051372032695c8e2f",
            "task_url": "hZboaeGYcysN2rEmRc_vAEFL3VO2WjaP",
            "time_elapsed": 64407,
            "trial_index": 24,
            "trial_type": "image-button-response"
        },
        {
            "annot": "{'SNR': '14', 'condition': 'echo-ref'}",
            "button_pressed": "2",
            "cond": 1,
            "correct": true,
            "internal_node_id": "0.0-25.0",
            "rt": 2108.8350000209175,
            "stimulus": "https://speech-in-noise-test.s3.us-east-2.amazonaws.com/audios/wordInNoise/follow-up/echo-ref_14_43_3_oqhOZCCkjC8eEmFC.wav",
            "subject": "5f107aa051372032695c8e2f",
            "task_url": "hZboaeGYcysN2rEmRc_vAEFL3VO2WjaP",
            "time_elapsed": 67119,
            "trial_index": 25,
            "trial_type": "hari-audio-button-response",
            "trialnum": 11
        },
        {
            "button_pressed": null,
            "internal_node_id": "0.0-26.0",
            "rt": null,
            "stimulus": "/static/jspsych/img/correct.png",
            "subject": "5f107aa051372032695c8e2f",
            "task_url": "hZboaeGYcysN2rEmRc_vAEFL3VO2WjaP",
            "time_elapsed": 68223,
            "trial_index": 26,
            "trial_type": "image-button-response"
        },
        {
            "annot": "{'SNR': '2', 'condition': 'echo-ref'}",
            "button_pressed": "2",
            "cond": 2,
            "correct": true,
            "internal_node_id": "0.0-27.0",
            "rt": 9839.784999960102,
            "stimulus": "https://speech-in-noise-test.s3.us-east-2.amazonaws.com/audios/wordInNoise/follow-up/echo-ref_2_37_3_plRsoSX3huzGolpe.wav",
            "subject": "5f107aa051372032695c8e2f",
            "task_url": "hZboaeGYcysN2rEmRc_vAEFL3VO2WjaP",
            "time_elapsed": 78665,
            "trial_index": 27,
            "trial_type": "hari-audio-button-response",
            "trialnum": 12
        },
        {
            "button_pressed": null,
            "internal_node_id": "0.0-28.0",
            "rt": null,
            "stimulus": "/static/jspsych/img/correct.png",
            "subject": "5f107aa051372032695c8e2f",
            "task_url": "hZboaeGYcysN2rEmRc_vAEFL3VO2WjaP",
            "time_elapsed": 79770,
            "trial_index": 28,
            "trial_type": "image-button-response"
        },
        {
            "annot": "{'SNR': '2', 'condition': 'echo-ref'}",
            "button_pressed": "5",
            "cond": 2,
            "correct": true,
            "internal_node_id": "0.0-29.0",
            "rt": 3476.8849999527447,
            "stimulus": "https://speech-in-noise-test.s3.us-east-2.amazonaws.com/audios/wordInNoise/follow-up/echo-ref_2_17_6_Fy4UW9uNKYbO1ZEv.wav",
            "subject": "5f107aa051372032695c8e2f",
            "task_url": "hZboaeGYcysN2rEmRc_vAEFL3VO2WjaP",
            "time_elapsed": 83850,
            "trial_index": 29,
            "trial_type": "hari-audio-button-response",
            "trialnum": 13
        },
        {
            "button_pressed": null,
            "internal_node_id": "0.0-30.0",
            "rt": null,
            "stimulus": "/static/jspsych/img/correct.png",
            "subject": "5f107aa051372032695c8e2f",
            "task_url": "hZboaeGYcysN2rEmRc_vAEFL3VO2WjaP",
            "time_elapsed": 84956,
            "trial_index": 30,
            "trial_type": "image-button-response"
        },
        {
            "annot": "{'SNR': '2', 'condition': 'echo-ref'}",
            "button_pressed": "3",
            "cond": 2,
            "correct": false,
            "internal_node_id": "0.0-31.0",
            "rt": 2572.145000041928,
            "stimulus": "https://speech-in-noise-test.s3.us-east-2.amazonaws.com/audios/wordInNoise/follow-up/echo-ref_2_40_3_IjUpEzxPwBHFCb91.wav",
            "subject": "5f107aa051372032695c8e2f",
            "task_url": "hZboaeGYcysN2rEmRc_vAEFL3VO2WjaP",
            "time_elapsed": 88130,
            "trial_index": 31,
            "trial_type": "hari-audio-button-response",
            "trialnum": 14
        },
        {
            "button_pressed": null,
            "internal_node_id": "0.0-32.0",
            "rt": null,
            "stimulus": "/static/jspsych/img/wrong.png",
            "subject": "5f107aa051372032695c8e2f",
            "task_url": "hZboaeGYcysN2rEmRc_vAEFL3VO2WjaP",
            "time_elapsed": 89237,
            "trial_index": 32,
            "trial_type": "image-button-response"
        },
        {
            "annot": "{'SNR': '8', 'condition': 'echo-ref'}",
            "button_pressed": "2",
            "cond": 2,
            "correct": false,
            "internal_node_id": "0.0-33.0",
            "rt": 2466.75999998115,
            "stimulus": "https://speech-in-noise-test.s3.us-east-2.amazonaws.com/audios/wordInNoise/follow-up/echo-ref_8_31_2_hCWTDaPteUWcLfq3.wav",
            "subject": "5f107aa051372032695c8e2f",
            "task_url": "hZboaeGYcysN2rEmRc_vAEFL3VO2WjaP",
            "time_elapsed": 92307,
            "trial_index": 33,
            "trial_type": "hari-audio-button-response",
            "trialnum": 15
        },
        {
            "button_pressed": null,
            "internal_node_id": "0.0-34.0",
            "rt": null,
            "stimulus": "/static/jspsych/img/wrong.png",
            "subject": "5f107aa051372032695c8e2f",
            "task_url": "hZboaeGYcysN2rEmRc_vAEFL3VO2WjaP",
            "time_elapsed": 93413,
            "trial_index": 34,
            "trial_type": "image-button-response"
        },
        {
            "annot": "{'SNR': '8', 'condition': 'echo-ref'}",
            "button_pressed": "3",
            "cond": 2,
            "correct": true,
            "internal_node_id": "0.0-35.0",
            "rt": 2171.9450000091456,
            "stimulus": "https://speech-in-noise-test.s3.us-east-2.amazonaws.com/audios/wordInNoise/follow-up/echo-ref_8_25_4_JX77Z4OE99rS5Fq6.wav",
            "subject": "5f107aa051372032695c8e2f",
            "task_url": "hZboaeGYcysN2rEmRc_vAEFL3VO2WjaP",
            "time_elapsed": 96187,
            "trial_index": 35,
            "trial_type": "hari-audio-button-response",
            "trialnum": 16
        },
        {
            "button_pressed": null,
            "internal_node_id": "0.0-36.0",
            "rt": null,
            "stimulus": "/static/jspsych/img/correct.png",
            "subject": "5f107aa051372032695c8e2f",
            "task_url": "hZboaeGYcysN2rEmRc_vAEFL3VO2WjaP",
            "time_elapsed": 97293,
            "trial_index": 36,
            "trial_type": "image-button-response"
        },
        {
            "annot": "{'SNR': '14', 'condition': 'echo-ref'}",
            "button_pressed": "1",
            "cond": 1,
            "correct": true,
            "internal_node_id": "0.0-37.0",
            "rt": 2539.989999961108,
            "stimulus": "https://speech-in-noise-test.s3.us-east-2.amazonaws.com/audios/wordInNoise/follow-up/echo-ref_14_14_2_Xreh2055wG7VFpcv.wav",
            "subject": "5f107aa051372032695c8e2f",
            "task_url": "hZboaeGYcysN2rEmRc_vAEFL3VO2WjaP",
            "time_elapsed": 100436,
            "trial_index": 37,
            "trial_type": "hari-audio-button-response",
            "trialnum": 17
        },
        {
            "button_pressed": null,
            "internal_node_id": "0.0-38.0",
            "rt": null,
            "stimulus": "/static/jspsych/img/correct.png",
            "subject": "5f107aa051372032695c8e2f",
            "task_url": "hZboaeGYcysN2rEmRc_vAEFL3VO2WjaP",
            "time_elapsed": 101543,
            "trial_index": 38,
            "trial_type": "image-button-response"
        },
        {
            "annot": "{'SNR': '-4', 'condition': 'echo-ref'}",
            "button_pressed": "2",
            "cond": 2,
            "correct": false,
            "internal_node_id": "0.0-39.0",
            "rt": 2538.1750000524335,
            "stimulus": "https://speech-in-noise-test.s3.us-east-2.amazonaws.com/audios/wordInNoise/follow-up/echo-ref_-4_18_4_stLQusPXaa44KrqF.wav",
            "subject": "5f107aa051372032695c8e2f",
            "task_url": "hZboaeGYcysN2rEmRc_vAEFL3VO2WjaP",
            "time_elapsed": 104685,
            "trial_index": 39,
            "trial_type": "hari-audio-button-response",
            "trialnum": 18
        },
        {
            "button_pressed": null,
            "internal_node_id": "0.0-40.0",
            "rt": null,
            "stimulus": "/static/jspsych/img/wrong.png",
            "subject": "5f107aa051372032695c8e2f",
            "task_url": "hZboaeGYcysN2rEmRc_vAEFL3VO2WjaP",
            "time_elapsed": 105789,
            "trial_index": 40,
            "trial_type": "image-button-response"
        },
        {
            "annot": "{'SNR': '-10', 'condition': 'echo-ref'}",
            "button_pressed": "3",
            "cond": 2,
            "correct": false,
            "internal_node_id": "0.0-41.0",
            "rt": 2181.2950000166893,
            "stimulus": "https://speech-in-noise-test.s3.us-east-2.amazonaws.com/audios/wordInNoise/follow-up/echo-ref_-10_15_5_0ccU28SRjh9kV3H1.wav",
            "subject": "5f107aa051372032695c8e2f",
            "task_url": "hZboaeGYcysN2rEmRc_vAEFL3VO2WjaP",
            "time_elapsed": 108573,
            "trial_index": 41,
            "trial_type": "hari-audio-button-response",
            "trialnum": 19
        },
        {
            "button_pressed": null,
            "internal_node_id": "0.0-42.0",
            "rt": null,
            "stimulus": "/static/jspsych/img/wrong.png",
            "subject": "5f107aa051372032695c8e2f",
            "task_url": "hZboaeGYcysN2rEmRc_vAEFL3VO2WjaP",
            "time_elapsed": 109679,
            "trial_index": 42,
            "trial_type": "image-button-response"
        },
        {
            "annot": "{'SNR': '14', 'condition': 'echo-ref'}",
            "button_pressed": "3",
            "cond": 1,
            "correct": false,
            "internal_node_id": "0.0-43.0",
            "rt": 2138.4299999917857,
            "stimulus": "https://speech-in-noise-test.s3.us-east-2.amazonaws.com/audios/wordInNoise/follow-up/echo-ref_14_42_2_RFyzr8z6Sd26Q4xI.wav",
            "subject": "5f107aa051372032695c8e2f",
            "task_url": "hZboaeGYcysN2rEmRc_vAEFL3VO2WjaP",
            "time_elapsed": 112421,
            "trial_index": 43,
            "trial_type": "hari-audio-button-response",
            "trialnum": 20
        },
        {
            "button_pressed": null,
            "internal_node_id": "0.0-44.0",
            "rt": null,
            "stimulus": "/static/jspsych/img/wrong.png",
            "subject": "5f107aa051372032695c8e2f",
            "task_url": "hZboaeGYcysN2rEmRc_vAEFL3VO2WjaP",
            "time_elapsed": 113527,
            "trial_index": 44,
            "trial_type": "image-button-response"
        }
    ],
    [
        {
            "button_pressed": "0",
            "internal_node_id": "0.0-0.0",
            "rt": 29394,
            "stimulus": "Let us adjust the volume one more time for louder sounds. Please lower down your volume first.",
            "subject": "5c1443d21f6f150001494f6a",
            "task_url": "hZboaeGYcysN2rEmRc_vAEFL3VO2WjaP",
            "time_elapsed": 29395,
            "trial_index": 0,
            "trial_type": "html-button-response"
        },
        {
            "button_pressed": "0",
            "internal_node_id": "0.0-1.0",
            "rt": 4175,
            "stimulus": "https://speech-in-noise-test.s3.us-east-2.amazonaws.com/audios/wordInNoise/follow-up/volume.wav",
            "subject": "5c1443d21f6f150001494f6a",
            "task_url": "hZboaeGYcysN2rEmRc_vAEFL3VO2WjaP",
            "time_elapsed": 34173,
            "trial_index": 1,
            "trial_type": "hari-audio-button-response"
        },
        {
            "button_pressed": "0",
            "internal_node_id": "0.0-2.0",
            "rt": 2153,
            "stimulus": "Is the right headphone in your right ear, and the left headphone in your left ear? It is very important!",
            "subject": "5c1443d21f6f150001494f6a",
            "task_url": "hZboaeGYcysN2rEmRc_vAEFL3VO2WjaP",
            "time_elapsed": 36927,
            "trial_index": 2,
            "trial_type": "html-button-response"
        },
        {
            "button_pressed": "0",
            "internal_node_id": "0.0-3.0",
            "rt": 1435,
            "stimulus": "This section is an extended version of previous task, which is clicking on the <strong>WORD</strong> prompted by the voice. <p></p>In cases where you can not hear the word, just give your best guess.",
            "subject": "5c1443d21f6f150001494f6a",
            "task_url": "hZboaeGYcysN2rEmRc_vAEFL3VO2WjaP",
            "time_elapsed": 38964,
            "trial_index": 3,
            "trial_type": "html-button-response"
        },
        {
            "button_pressed": "0",
            "internal_node_id": "0.0-4.0",
            "rt": 785,
            "stimulus": "When you are ready, click <strong>Continue</strong> to hear the first word.",
            "subject": "5c1443d21f6f150001494f6a",
            "task_url": "hZboaeGYcysN2rEmRc_vAEFL3VO2WjaP",
            "time_elapsed": 40350,
            "trial_index": 4,
            "trial_type": "html-button-response"
        },
        {
            "annot": "{'SNR': '8', 'condition': 'echo-ref'}",
            "button_pressed": "2",
            "cond": 2,
            "correct": false,
            "internal_node_id": "0.0-5.0",
            "rt": 2530,
            "stimulus": "https://speech-in-noise-test.s3.us-east-2.amazonaws.com/audios/wordInNoise/follow-up/echo-ref_8_29_6_Pkii61skZHKYU8DM.wav",
            "subject": "5c1443d21f6f150001494f6a",
            "task_url": "hZboaeGYcysN2rEmRc_vAEFL3VO2WjaP",
            "time_elapsed": 43487,
            "trial_index": 5,
            "trial_type": "hari-audio-button-response",
            "trialnum": 1
        },
        {
            "button_pressed": null,
            "internal_node_id": "0.0-6.0",
            "rt": null,
            "stimulus": "/static/jspsych/img/wrong.png",
            "subject": "5c1443d21f6f150001494f6a",
            "task_url": "hZboaeGYcysN2rEmRc_vAEFL3VO2WjaP",
            "time_elapsed": 44592,
            "trial_index": 6,
            "trial_type": "image-button-response"
        },
        {
            "annot": "{'SNR': '-4', 'condition': 'echo-ref'}",
            "button_pressed": "2",
            "cond": 2,
            "correct": false,
            "internal_node_id": "0.0-7.0",
            "rt": 2905,
            "stimulus": "https://speech-in-noise-test.s3.us-east-2.amazonaws.com/audios/wordInNoise/follow-up/echo-ref_-4_33_6_5ngbxUax3jqKTlt0.wav",
            "subject": "5c1443d21f6f150001494f6a",
            "task_url": "hZboaeGYcysN2rEmRc_vAEFL3VO2WjaP",
            "time_elapsed": 48100,
            "trial_index": 7,
            "trial_type": "hari-audio-button-response",
            "trialnum": 2
        },
        {
            "button_pressed": null,
            "internal_node_id": "0.0-8.0",
            "rt": null,
            "stimulus": "/static/jspsych/img/wrong.png",
            "subject": "5c1443d21f6f150001494f6a",
            "task_url": "hZboaeGYcysN2rEmRc_vAEFL3VO2WjaP",
            "time_elapsed": 49206,
            "trial_index": 8,
            "trial_type": "image-button-response"
        },
        {
            "annot": "{'SNR': '14', 'condition': 'echo-ref'}",
            "button_pressed": "0",
            "cond": 1,
            "correct": true,
            "internal_node_id": "0.0-9.0",
            "rt": 2327,
            "stimulus": "https://speech-in-noise-test.s3.us-east-2.amazonaws.com/audios/wordInNoise/follow-up/echo-ref_14_26_1_m6WfPY21Ix2lJ4Bf.wav",
            "subject": "5c1443d21f6f150001494f6a",
            "task_url": "hZboaeGYcysN2rEmRc_vAEFL3VO2WjaP",
            "time_elapsed": 52136,
            "trial_index": 9,
            "trial_type": "hari-audio-button-response",
            "trialnum": 3
        },
        {
            "button_pressed": null,
            "internal_node_id": "0.0-10.0",
            "rt": null,
            "stimulus": "/static/jspsych/img/correct.png",
            "subject": "5c1443d21f6f150001494f6a",
            "task_url": "hZboaeGYcysN2rEmRc_vAEFL3VO2WjaP",
            "time_elapsed": 53240,
            "trial_index": 10,
            "trial_type": "image-button-response"
        },
        {
            "annot": "{'SNR': '-10', 'condition': 'echo-ref'}",
            "button_pressed": "3",
            "cond": 2,
            "correct": false,
            "internal_node_id": "0.0-11.0",
            "rt": 2403,
            "stimulus": "https://speech-in-noise-test.s3.us-east-2.amazonaws.com/audios/wordInNoise/follow-up/echo-ref_-10_5_2_9XGIldZvBcPbBmR2.wav",
            "subject": "5c1443d21f6f150001494f6a",
            "task_url": "hZboaeGYcysN2rEmRc_vAEFL3VO2WjaP",
            "time_elapsed": 56250,
            "trial_index": 11,
            "trial_type": "hari-audio-button-response",
            "trialnum": 4
        },
        {
            "button_pressed": null,
            "internal_node_id": "0.0-12.0",
            "rt": null,
            "stimulus": "/static/jspsych/img/wrong.png",
            "subject": "5c1443d21f6f150001494f6a",
            "task_url": "hZboaeGYcysN2rEmRc_vAEFL3VO2WjaP",
            "time_elapsed": 57359,
            "trial_index": 12,
            "trial_type": "image-button-response"
        },
        {
            "annot": "{'SNR': '8', 'condition': 'echo-ref'}",
            "button_pressed": "3",
            "cond": 2,
            "correct": true,
            "internal_node_id": "0.0-13.0",
            "rt": 2430,
            "stimulus": "https://speech-in-noise-test.s3.us-east-2.amazonaws.com/audios/wordInNoise/follow-up/echo-ref_8_9_4_sFiwHbbTsTPX1ucn.wav",
            "subject": "5c1443d21f6f150001494f6a",
            "task_url": "hZboaeGYcysN2rEmRc_vAEFL3VO2WjaP",
            "time_elapsed": 60390,
            "trial_index": 13,
            "trial_type": "hari-audio-button-response",
            "trialnum": 5
        },
        {
            "button_pressed": null,
            "internal_node_id": "0.0-14.0",
            "rt": null,
            "stimulus": "/static/jspsych/img/correct.png",
            "subject": "5c1443d21f6f150001494f6a",
            "task_url": "hZboaeGYcysN2rEmRc_vAEFL3VO2WjaP",
            "time_elapsed": 61494,
            "trial_index": 14,
            "trial_type": "image-button-response"
        },
        {
            "annot": "{'SNR': '-10', 'condition': 'echo-ref'}",
            "button_pressed": "3",
            "cond": 2,
            "correct": false,
            "internal_node_id": "0.0-15.0",
            "rt": 2327,
            "stimulus": "https://speech-in-noise-test.s3.us-east-2.amazonaws.com/audios/wordInNoise/follow-up/echo-ref_-10_39_1_PUeD1fpvwbbIxmRP.wav",
            "subject": "5c1443d21f6f150001494f6a",
            "task_url": "hZboaeGYcysN2rEmRc_vAEFL3VO2WjaP",
            "time_elapsed": 64425,
            "trial_index": 15,
            "trial_type": "hari-audio-button-response",
            "trialnum": 6
        },
        {
            "button_pressed": null,
            "internal_node_id": "0.0-16.0",
            "rt": null,
            "stimulus": "/static/jspsych/img/wrong.png",
            "subject": "5c1443d21f6f150001494f6a",
            "task_url": "hZboaeGYcysN2rEmRc_vAEFL3VO2WjaP",
            "time_elapsed": 65532,
            "trial_index": 16,
            "trial_type": "image-button-response"
        },
        {
            "annot": "{'SNR': '-4', 'condition': 'echo-ref'}",
            "button_pressed": "4",
            "cond": 2,
            "correct": true,
            "internal_node_id": "0.0-17.0",
            "rt": 1903,
            "stimulus": "https://speech-in-noise-test.s3.us-east-2.amazonaws.com/audios/wordInNoise/follow-up/echo-ref_-4_50_5_shwFEtRiYZwEDPwS.wav",
            "subject": "5c1443d21f6f150001494f6a",
            "task_url": "hZboaeGYcysN2rEmRc_vAEFL3VO2WjaP",
            "time_elapsed": 68039,
            "trial_index": 17,
            "trial_type": "hari-audio-button-response",
            "trialnum": 7
        },
        {
            "button_pressed": null,
            "internal_node_id": "0.0-18.0",
            "rt": null,
            "stimulus": "/static/jspsych/img/correct.png",
            "subject": "5c1443d21f6f150001494f6a",
            "task_url": "hZboaeGYcysN2rEmRc_vAEFL3VO2WjaP",
            "time_elapsed": 69142,
            "trial_index": 18,
            "trial_type": "image-button-response"
        },
        {
            "annot": "{'SNR': '-10', 'condition': 'echo-ref'}",
            "button_pressed": "3",
            "cond": 2,
            "correct": false,
            "internal_node_id": "0.0-19.0",
            "rt": 2413,
            "stimulus": "https://speech-in-noise-test.s3.us-east-2.amazonaws.com/audios/wordInNoise/follow-up/echo-ref_-10_34_1_2GYkRNo4zuF0DDVH.wav",
            "subject": "5c1443d21f6f150001494f6a",
            "task_url": "hZboaeGYcysN2rEmRc_vAEFL3VO2WjaP",
            "time_elapsed": 72160,
            "trial_index": 19,
            "trial_type": "hari-audio-button-response",
            "trialnum": 8
        },
        {
            "button_pressed": null,
            "internal_node_id": "0.0-20.0",
            "rt": null,
            "stimulus": "/static/jspsych/img/wrong.png",
            "subject": "5c1443d21f6f150001494f6a",
            "task_url": "hZboaeGYcysN2rEmRc_vAEFL3VO2WjaP",
            "time_elapsed": 73264,
            "trial_index": 20,
            "trial_type": "image-button-response"
        },
        {
            "annot": "{'SNR': '2', 'condition': 'echo-ref'}",
            "button_pressed": "0",
            "cond": 2,
            "correct": true,
            "internal_node_id": "0.0-21.0",
            "rt": 2171,
            "stimulus": "https://speech-in-noise-test.s3.us-east-2.amazonaws.com/audios/wordInNoise/follow-up/echo-ref_2_22_1_HiIhoQELMF7paaGs.wav",
            "subject": "5c1443d21f6f150001494f6a",
            "task_url": "hZboaeGYcysN2rEmRc_vAEFL3VO2WjaP",
            "time_elapsed": 76040,
            "trial_index": 21,
            "trial_type": "hari-audio-button-response",
            "trialnum": 9
        },
        {
            "button_pressed": null,
            "internal_node_id": "0.0-22.0",
            "rt": null,
            "stimulus": "/static/jspsych/img/correct.png",
            "subject": "5c1443d21f6f150001494f6a",
            "task_url": "hZboaeGYcysN2rEmRc_vAEFL3VO2WjaP",
            "time_elapsed": 77144,
            "trial_index": 22,
            "trial_type": "image-button-response"
        },
        {
            "annot": "{'SNR': '-4', 'condition': 'echo-ref'}",
            "button_pressed": "1",
            "cond": 2,
            "correct": false,
            "internal_node_id": "0.0-23.0",
            "rt": 1773,
            "stimulus": "https://speech-in-noise-test.s3.us-east-2.amazonaws.com/audios/wordInNoise/follow-up/echo-ref_-4_35_5_PeajjA7E7v0AzZRT.wav",
            "subject": "5c1443d21f6f150001494f6a",
            "task_url": "hZboaeGYcysN2rEmRc_vAEFL3VO2WjaP",
            "time_elapsed": 79523,
            "trial_index": 23,
            "trial_type": "hari-audio-button-response",
            "trialnum": 10
        },
        {
            "button_pressed": null,
            "internal_node_id": "0.0-24.0",
            "rt": null,
            "stimulus": "/static/jspsych/img/wrong.png",
            "subject": "5c1443d21f6f150001494f6a",
            "task_url": "hZboaeGYcysN2rEmRc_vAEFL3VO2WjaP",
            "time_elapsed": 80627,
            "trial_index": 24,
            "trial_type": "image-button-response"
        },
        {
            "annot": "{'SNR': '14', 'condition': 'echo-ref'}",
            "button_pressed": "2",
            "cond": 1,
            "correct": true,
            "internal_node_id": "0.0-25.0",
            "rt": 1975,
            "stimulus": "https://speech-in-noise-test.s3.us-east-2.amazonaws.com/audios/wordInNoise/follow-up/echo-ref_14_43_3_oqhOZCCkjC8eEmFC.wav",
            "subject": "5c1443d21f6f150001494f6a",
            "task_url": "hZboaeGYcysN2rEmRc_vAEFL3VO2WjaP",
            "time_elapsed": 83207,
            "trial_index": 25,
            "trial_type": "hari-audio-button-response",
            "trialnum": 11
        },
        {
            "button_pressed": null,
            "internal_node_id": "0.0-26.0",
            "rt": null,
            "stimulus": "/static/jspsych/img/correct.png",
            "subject": "5c1443d21f6f150001494f6a",
            "task_url": "hZboaeGYcysN2rEmRc_vAEFL3VO2WjaP",
            "time_elapsed": 84310,
            "trial_index": 26,
            "trial_type": "image-button-response"
        },
        {
            "annot": "{'SNR': '2', 'condition': 'echo-ref'}",
            "button_pressed": "3",
            "cond": 2,
            "correct": false,
            "internal_node_id": "0.0-27.0",
            "rt": 2297,
            "stimulus": "https://speech-in-noise-test.s3.us-east-2.amazonaws.com/audios/wordInNoise/follow-up/echo-ref_2_37_3_plRsoSX3huzGolpe.wav",
            "subject": "5c1443d21f6f150001494f6a",
            "task_url": "hZboaeGYcysN2rEmRc_vAEFL3VO2WjaP",
            "time_elapsed": 87210,
            "trial_index": 27,
            "trial_type": "hari-audio-button-response",
            "trialnum": 12
        },
        {
            "button_pressed": null,
            "internal_node_id": "0.0-28.0",
            "rt": null,
            "stimulus": "/static/jspsych/img/wrong.png",
            "subject": "5c1443d21f6f150001494f6a",
            "task_url": "hZboaeGYcysN2rEmRc_vAEFL3VO2WjaP",
            "time_elapsed": 88313,
            "trial_index": 28,
            "trial_type": "image-button-response"
        },
        {
            "annot": "{'SNR': '2', 'condition': 'echo-ref'}",
            "button_pressed": "2",
            "cond": 2,
            "correct": false,
            "internal_node_id": "0.0-29.0",
            "rt": 2202,
            "stimulus": "https://speech-in-noise-test.s3.us-east-2.amazonaws.com/audios/wordInNoise/follow-up/echo-ref_2_17_6_Fy4UW9uNKYbO1ZEv.wav",
            "subject": "5c1443d21f6f150001494f6a",
            "task_url": "hZboaeGYcysN2rEmRc_vAEFL3VO2WjaP",
            "time_elapsed": 91118,
            "trial_index": 29,
            "trial_type": "hari-audio-button-response",
            "trialnum": 13
        },
        {
            "button_pressed": null,
            "internal_node_id": "0.0-30.0",
            "rt": null,
            "stimulus": "/static/jspsych/img/wrong.png",
            "subject": "5c1443d21f6f150001494f6a",
            "task_url": "hZboaeGYcysN2rEmRc_vAEFL3VO2WjaP",
            "time_elapsed": 92224,
            "trial_index": 30,
            "trial_type": "image-button-response"
        },
        {
            "annot": "{'SNR': '2', 'condition': 'echo-ref'}",
            "button_pressed": "3",
            "cond": 2,
            "correct": false,
            "internal_node_id": "0.0-31.0",
            "rt": 2091,
            "stimulus": "https://speech-in-noise-test.s3.us-east-2.amazonaws.com/audios/wordInNoise/follow-up/echo-ref_2_40_3_IjUpEzxPwBHFCb91.wav",
            "subject": "5c1443d21f6f150001494f6a",
            "task_url": "hZboaeGYcysN2rEmRc_vAEFL3VO2WjaP",
            "time_elapsed": 94918,
            "trial_index": 31,
            "trial_type": "hari-audio-button-response",
            "trialnum": 14
        },
        {
            "button_pressed": null,
            "internal_node_id": "0.0-32.0",
            "rt": null,
            "stimulus": "/static/jspsych/img/wrong.png",
            "subject": "5c1443d21f6f150001494f6a",
            "task_url": "hZboaeGYcysN2rEmRc_vAEFL3VO2WjaP",
            "time_elapsed": 96021,
            "trial_index": 32,
            "trial_type": "image-button-response"
        },
        {
            "annot": "{'SNR': '8', 'condition': 'echo-ref'}",
            "button_pressed": "2",
            "cond": 2,
            "correct": false,
            "internal_node_id": "0.0-33.0",
            "rt": 2013,
            "stimulus": "https://speech-in-noise-test.s3.us-east-2.amazonaws.com/audios/wordInNoise/follow-up/echo-ref_8_31_2_hCWTDaPteUWcLfq3.wav",
            "subject": "5c1443d21f6f150001494f6a",
            "task_url": "hZboaeGYcysN2rEmRc_vAEFL3VO2WjaP",
            "time_elapsed": 98636,
            "trial_index": 33,
            "trial_type": "hari-audio-button-response",
            "trialnum": 15
        },
        {
            "button_pressed": null,
            "internal_node_id": "0.0-34.0",
            "rt": null,
            "stimulus": "/static/jspsych/img/wrong.png",
            "subject": "5c1443d21f6f150001494f6a",
            "task_url": "hZboaeGYcysN2rEmRc_vAEFL3VO2WjaP",
            "time_elapsed": 99739,
            "trial_index": 34,
            "trial_type": "image-button-response"
        },
        {
            "annot": "{'SNR': '8', 'condition': 'echo-ref'}",
            "button_pressed": "3",
            "cond": 2,
            "correct": true,
            "internal_node_id": "0.0-35.0",
            "rt": 2473,
            "stimulus": "https://speech-in-noise-test.s3.us-east-2.amazonaws.com/audios/wordInNoise/follow-up/echo-ref_8_25_4_JX77Z4OE99rS5Fq6.wav",
            "subject": "5c1443d21f6f150001494f6a",
            "task_url": "hZboaeGYcysN2rEmRc_vAEFL3VO2WjaP",
            "time_elapsed": 102815,
            "trial_index": 35,
            "trial_type": "hari-audio-button-response",
            "trialnum": 16
        },
        {
            "button_pressed": null,
            "internal_node_id": "0.0-36.0",
            "rt": null,
            "stimulus": "/static/jspsych/img/correct.png",
            "subject": "5c1443d21f6f150001494f6a",
            "task_url": "hZboaeGYcysN2rEmRc_vAEFL3VO2WjaP",
            "time_elapsed": 103921,
            "trial_index": 36,
            "trial_type": "image-button-response"
        },
        {
            "annot": "{'SNR': '14', 'condition': 'echo-ref'}",
            "button_pressed": "1",
            "cond": 1,
            "correct": true,
            "internal_node_id": "0.0-37.0",
            "rt": 2993,
            "stimulus": "https://speech-in-noise-test.s3.us-east-2.amazonaws.com/audios/wordInNoise/follow-up/echo-ref_14_14_2_Xreh2055wG7VFpcv.wav",
            "subject": "5c1443d21f6f150001494f6a",
            "task_url": "hZboaeGYcysN2rEmRc_vAEFL3VO2WjaP",
            "time_elapsed": 107520,
            "trial_index": 37,
            "trial_type": "hari-audio-button-response",
            "trialnum": 17
        },
        {
            "button_pressed": null,
            "internal_node_id": "0.0-38.0",
            "rt": null,
            "stimulus": "/static/jspsych/img/correct.png",
            "subject": "5c1443d21f6f150001494f6a",
            "task_url": "hZboaeGYcysN2rEmRc_vAEFL3VO2WjaP",
            "time_elapsed": 108621,
            "trial_index": 38,
            "trial_type": "image-button-response"
        },
        {
            "annot": "{'SNR': '-4', 'condition': 'echo-ref'}",
            "button_pressed": "2",
            "cond": 2,
            "correct": false,
            "internal_node_id": "0.0-39.0",
            "rt": 2328,
            "stimulus": "https://speech-in-noise-test.s3.us-east-2.amazonaws.com/audios/wordInNoise/follow-up/echo-ref_-4_18_4_stLQusPXaa44KrqF.wav",
            "subject": "5c1443d21f6f150001494f6a",
            "task_url": "hZboaeGYcysN2rEmRc_vAEFL3VO2WjaP",
            "time_elapsed": 111554,
            "trial_index": 39,
            "trial_type": "hari-audio-button-response",
            "trialnum": 18
        },
        {
            "button_pressed": null,
            "internal_node_id": "0.0-40.0",
            "rt": null,
            "stimulus": "/static/jspsych/img/wrong.png",
            "subject": "5c1443d21f6f150001494f6a",
            "task_url": "hZboaeGYcysN2rEmRc_vAEFL3VO2WjaP",
            "time_elapsed": 112656,
            "trial_index": 40,
            "trial_type": "image-button-response"
        },
        {
            "annot": "{'SNR': '-10', 'condition': 'echo-ref'}",
            "button_pressed": "1",
            "cond": 2,
            "correct": false,
            "internal_node_id": "0.0-41.0",
            "rt": 2526,
            "stimulus": "https://speech-in-noise-test.s3.us-east-2.amazonaws.com/audios/wordInNoise/follow-up/echo-ref_-10_15_5_0ccU28SRjh9kV3H1.wav",
            "subject": "5c1443d21f6f150001494f6a",
            "task_url": "hZboaeGYcysN2rEmRc_vAEFL3VO2WjaP",
            "time_elapsed": 115785,
            "trial_index": 41,
            "trial_type": "hari-audio-button-response",
            "trialnum": 19
        },
        {
            "button_pressed": null,
            "internal_node_id": "0.0-42.0",
            "rt": null,
            "stimulus": "/static/jspsych/img/wrong.png",
            "subject": "5c1443d21f6f150001494f6a",
            "task_url": "hZboaeGYcysN2rEmRc_vAEFL3VO2WjaP",
            "time_elapsed": 116890,
            "trial_index": 42,
            "trial_type": "image-button-response"
        },
        {
            "annot": "{'SNR': '14', 'condition': 'echo-ref'}",
            "button_pressed": "1",
            "cond": 1,
            "correct": true,
            "internal_node_id": "0.0-43.0",
            "rt": 2503,
            "stimulus": "https://speech-in-noise-test.s3.us-east-2.amazonaws.com/audios/wordInNoise/follow-up/echo-ref_14_42_2_RFyzr8z6Sd26Q4xI.wav",
            "subject": "5c1443d21f6f150001494f6a",
            "task_url": "hZboaeGYcysN2rEmRc_vAEFL3VO2WjaP",
            "time_elapsed": 119995,
            "trial_index": 43,
            "trial_type": "hari-audio-button-response",
            "trialnum": 20
        },
        {
            "button_pressed": null,
            "internal_node_id": "0.0-44.0",
            "rt": null,
            "stimulus": "/static/jspsych/img/correct.png",
            "subject": "5c1443d21f6f150001494f6a",
            "task_url": "hZboaeGYcysN2rEmRc_vAEFL3VO2WjaP",
            "time_elapsed": 121102,
            "trial_index": 44,
            "trial_type": "image-button-response"
        }
    ],
    [
        {
            "button_pressed": "0",
            "internal_node_id": "0.0-0.0",
            "rt": 1068.635000003269,
            "stimulus": "Let us adjust the volume one more time for louder sounds. Please lower down your volume first.",
            "subject": "5f10e4279df7fd42944120f3",
            "task_url": "hZboaeGYcysN2rEmRc_vAEFL3VO2WjaP",
            "time_elapsed": 1075,
            "trial_index": 0,
            "trial_type": "html-button-response"
        },
        {
            "button_pressed": "0",
            "internal_node_id": "0.0-1.0",
            "rt": 3238.515000004554,
            "stimulus": "https://speech-in-noise-test.s3.us-east-2.amazonaws.com/audios/wordInNoise/follow-up/volume.wav",
            "subject": "5f10e4279df7fd42944120f3",
            "task_url": "hZboaeGYcysN2rEmRc_vAEFL3VO2WjaP",
            "time_elapsed": 4922,
            "trial_index": 1,
            "trial_type": "hari-audio-button-response"
        },
        {
            "button_pressed": "0",
            "internal_node_id": "0.0-2.0",
            "rt": 2588.209999994433,
            "stimulus": "Is the right headphone in your right ear, and the left headphone in your left ear? It is very important!",
            "subject": "5f10e4279df7fd42944120f3",
            "task_url": "hZboaeGYcysN2rEmRc_vAEFL3VO2WjaP",
            "time_elapsed": 8115,
            "trial_index": 2,
            "trial_type": "html-button-response"
        },
        {
            "button_pressed": "0",
            "internal_node_id": "0.0-3.0",
            "rt": 2615.0699999998324,
            "stimulus": "This section is an extended version of previous task, which is clicking on the <strong>WORD</strong> prompted by the voice. <p></p>In cases where you can not hear the word, just give your best guess.",
            "subject": "5f10e4279df7fd42944120f3",
            "task_url": "hZboaeGYcysN2rEmRc_vAEFL3VO2WjaP",
            "time_elapsed": 11350,
            "trial_index": 3,
            "trial_type": "html-button-response"
        },
        {
            "button_pressed": "0",
            "internal_node_id": "0.0-4.0",
            "rt": 595.1649999988149,
            "stimulus": "When you are ready, click <strong>Continue</strong> to hear the first word.",
            "subject": "5f10e4279df7fd42944120f3",
            "task_url": "hZboaeGYcysN2rEmRc_vAEFL3VO2WjaP",
            "time_elapsed": 12548,
            "trial_index": 4,
            "trial_type": "html-button-response"
        },
        {
            "annot": "{'SNR': '8', 'condition': 'echo-ref'}",
            "button_pressed": "5",
            "cond": 2,
            "correct": true,
            "internal_node_id": "0.0-5.0",
            "rt": 2035.519999997632,
            "stimulus": "https://speech-in-noise-test.s3.us-east-2.amazonaws.com/audios/wordInNoise/follow-up/echo-ref_8_29_6_Pkii61skZHKYU8DM.wav",
            "subject": "5f10e4279df7fd42944120f3",
            "task_url": "hZboaeGYcysN2rEmRc_vAEFL3VO2WjaP",
            "time_elapsed": 15193,
            "trial_index": 5,
            "trial_type": "hari-audio-button-response",
            "trialnum": 1
        },
        {
            "button_pressed": null,
            "internal_node_id": "0.0-6.0",
            "rt": null,
            "stimulus": "/static/jspsych/img/correct.png",
            "subject": "5f10e4279df7fd42944120f3",
            "task_url": "hZboaeGYcysN2rEmRc_vAEFL3VO2WjaP",
            "time_elapsed": 16311,
            "trial_index": 6,
            "trial_type": "image-button-response"
        },
        {
            "annot": "{'SNR': '-4', 'condition': 'echo-ref'}",
            "button_pressed": "3",
            "cond": 2,
            "correct": false,
            "internal_node_id": "0.0-7.0",
            "rt": 3716.1249999990105,
            "stimulus": "https://speech-in-noise-test.s3.us-east-2.amazonaws.com/audios/wordInNoise/follow-up/echo-ref_-4_33_6_5ngbxUax3jqKTlt0.wav",
            "subject": "5f10e4279df7fd42944120f3",
            "task_url": "hZboaeGYcysN2rEmRc_vAEFL3VO2WjaP",
            "time_elapsed": 20635,
            "trial_index": 7,
            "trial_type": "hari-audio-button-response",
            "trialnum": 2
        },
        {
            "button_pressed": null,
            "internal_node_id": "0.0-8.0",
            "rt": null,
            "stimulus": "/static/jspsych/img/wrong.png",
            "subject": "5f10e4279df7fd42944120f3",
            "task_url": "hZboaeGYcysN2rEmRc_vAEFL3VO2WjaP",
            "time_elapsed": 21759,
            "trial_index": 8,
            "trial_type": "image-button-response"
        },
        {
            "annot": "{'SNR': '14', 'condition': 'echo-ref'}",
            "button_pressed": "0",
            "cond": 1,
            "correct": true,
            "internal_node_id": "0.0-9.0",
            "rt": 3313.654999998107,
            "stimulus": "https://speech-in-noise-test.s3.us-east-2.amazonaws.com/audios/wordInNoise/follow-up/echo-ref_14_26_1_m6WfPY21Ix2lJ4Bf.wav",
            "subject": "5f10e4279df7fd42944120f3",
            "task_url": "hZboaeGYcysN2rEmRc_vAEFL3VO2WjaP",
            "time_elapsed": 25677,
            "trial_index": 9,
            "trial_type": "hari-audio-button-response",
            "trialnum": 3
        },
        {
            "button_pressed": null,
            "internal_node_id": "0.0-10.0",
            "rt": null,
            "stimulus": "/static/jspsych/img/correct.png",
            "subject": "5f10e4279df7fd42944120f3",
            "task_url": "hZboaeGYcysN2rEmRc_vAEFL3VO2WjaP",
            "time_elapsed": 26796,
            "trial_index": 10,
            "trial_type": "image-button-response"
        },
        {
            "annot": "{'SNR': '-10', 'condition': 'echo-ref'}",
            "button_pressed": "4",
            "cond": 2,
            "correct": false,
            "internal_node_id": "0.0-11.0",
            "rt": 3023.780000003171,
            "stimulus": "https://speech-in-noise-test.s3.us-east-2.amazonaws.com/audios/wordInNoise/follow-up/echo-ref_-10_5_2_9XGIldZvBcPbBmR2.wav",
            "subject": "5f10e4279df7fd42944120f3",
            "task_url": "hZboaeGYcysN2rEmRc_vAEFL3VO2WjaP",
            "time_elapsed": 30435,
            "trial_index": 11,
            "trial_type": "hari-audio-button-response",
            "trialnum": 4
        },
        {
            "button_pressed": null,
            "internal_node_id": "0.0-12.0",
            "rt": null,
            "stimulus": "/static/jspsych/img/wrong.png",
            "subject": "5f10e4279df7fd42944120f3",
            "task_url": "hZboaeGYcysN2rEmRc_vAEFL3VO2WjaP",
            "time_elapsed": 31566,
            "trial_index": 12,
            "trial_type": "image-button-response"
        },
        {
            "annot": "{'SNR': '8', 'condition': 'echo-ref'}",
            "button_pressed": "3",
            "cond": 2,
            "correct": true,
            "internal_node_id": "0.0-13.0",
            "rt": 3030.800000000454,
            "stimulus": "https://speech-in-noise-test.s3.us-east-2.amazonaws.com/audios/wordInNoise/follow-up/echo-ref_8_9_4_sFiwHbbTsTPX1ucn.wav",
            "subject": "5f10e4279df7fd42944120f3",
            "task_url": "hZboaeGYcysN2rEmRc_vAEFL3VO2WjaP",
            "time_elapsed": 35216,
            "trial_index": 13,
            "trial_type": "hari-audio-button-response",
            "trialnum": 5
        },
        {
            "button_pressed": null,
            "internal_node_id": "0.0-14.0",
            "rt": null,
            "stimulus": "/static/jspsych/img/correct.png",
            "subject": "5f10e4279df7fd42944120f3",
            "task_url": "hZboaeGYcysN2rEmRc_vAEFL3VO2WjaP",
            "time_elapsed": 36342,
            "trial_index": 14,
            "trial_type": "image-button-response"
        },
        {
            "annot": "{'SNR': '-10', 'condition': 'echo-ref'}",
            "button_pressed": "3",
            "cond": 2,
            "correct": false,
            "internal_node_id": "0.0-15.0",
            "rt": 4602.070000000822,
            "stimulus": "https://speech-in-noise-test.s3.us-east-2.amazonaws.com/audios/wordInNoise/follow-up/echo-ref_-10_39_1_PUeD1fpvwbbIxmRP.wav",
            "subject": "5f10e4279df7fd42944120f3",
            "task_url": "hZboaeGYcysN2rEmRc_vAEFL3VO2WjaP",
            "time_elapsed": 41552,
            "trial_index": 15,
            "trial_type": "hari-audio-button-response",
            "trialnum": 6
        },
        {
            "button_pressed": null,
            "internal_node_id": "0.0-16.0",
            "rt": null,
            "stimulus": "/static/jspsych/img/wrong.png",
            "subject": "5f10e4279df7fd42944120f3",
            "task_url": "hZboaeGYcysN2rEmRc_vAEFL3VO2WjaP",
            "time_elapsed": 42677,
            "trial_index": 16,
            "trial_type": "image-button-response"
        },
        {
            "annot": "{'SNR': '-4', 'condition': 'echo-ref'}",
            "button_pressed": "4",
            "cond": 2,
            "correct": true,
            "internal_node_id": "0.0-17.0",
            "rt": 2835.4249999974854,
            "stimulus": "https://speech-in-noise-test.s3.us-east-2.amazonaws.com/audios/wordInNoise/follow-up/echo-ref_-4_50_5_shwFEtRiYZwEDPwS.wav",
            "subject": "5f10e4279df7fd42944120f3",
            "task_url": "hZboaeGYcysN2rEmRc_vAEFL3VO2WjaP",
            "time_elapsed": 46129,
            "trial_index": 17,
            "trial_type": "hari-audio-button-response",
            "trialnum": 7
        },
        {
            "button_pressed": null,
            "internal_node_id": "0.0-18.0",
            "rt": null,
            "stimulus": "/static/jspsych/img/correct.png",
            "subject": "5f10e4279df7fd42944120f3",
            "task_url": "hZboaeGYcysN2rEmRc_vAEFL3VO2WjaP",
            "time_elapsed": 47240,
            "trial_index": 18,
            "trial_type": "image-button-response"
        },
        {
            "annot": "{'SNR': '-10', 'condition': 'echo-ref'}",
            "button_pressed": "3",
            "cond": 2,
            "correct": false,
            "internal_node_id": "0.0-19.0",
            "rt": 4526.425000003655,
            "stimulus": "https://speech-in-noise-test.s3.us-east-2.amazonaws.com/audios/wordInNoise/follow-up/echo-ref_-10_34_1_2GYkRNo4zuF0DDVH.wav",
            "subject": "5f10e4279df7fd42944120f3",
            "task_url": "hZboaeGYcysN2rEmRc_vAEFL3VO2WjaP",
            "time_elapsed": 52373,
            "trial_index": 19,
            "trial_type": "hari-audio-button-response",
            "trialnum": 8
        },
        {
            "button_pressed": null,
            "internal_node_id": "0.0-20.0",
            "rt": null,
            "stimulus": "/static/jspsych/img/wrong.png",
            "subject": "5f10e4279df7fd42944120f3",
            "task_url": "hZboaeGYcysN2rEmRc_vAEFL3VO2WjaP",
            "time_elapsed": 53495,
            "trial_index": 20,
            "trial_type": "image-button-response"
        },
        {
            "annot": "{'SNR': '2', 'condition': 'echo-ref'}",
            "button_pressed": "0",
            "cond": 2,
            "correct": true,
            "internal_node_id": "0.0-21.0",
            "rt": 2063.8699999981327,
            "stimulus": "https://speech-in-noise-test.s3.us-east-2.amazonaws.com/audios/wordInNoise/follow-up/echo-ref_2_22_1_HiIhoQELMF7paaGs.wav",
            "subject": "5f10e4279df7fd42944120f3",
            "task_url": "hZboaeGYcysN2rEmRc_vAEFL3VO2WjaP",
            "time_elapsed": 56164,
            "trial_index": 21,
            "trial_type": "hari-audio-button-response",
            "trialnum": 9
        },
        {
            "button_pressed": null,
            "internal_node_id": "0.0-22.0",
            "rt": null,
            "stimulus": "/static/jspsych/img/correct.png",
            "subject": "5f10e4279df7fd42944120f3",
            "task_url": "hZboaeGYcysN2rEmRc_vAEFL3VO2WjaP",
            "time_elapsed": 57296,
            "trial_index": 22,
            "trial_type": "image-button-response"
        },
        {
            "annot": "{'SNR': '-4', 'condition': 'echo-ref'}",
            "button_pressed": "4",
            "cond": 2,
            "correct": true,
            "internal_node_id": "0.0-23.0",
            "rt": 2167.3550000050454,
            "stimulus": "https://speech-in-noise-test.s3.us-east-2.amazonaws.com/audios/wordInNoise/follow-up/echo-ref_-4_35_5_PeajjA7E7v0AzZRT.wav",
            "subject": "5f10e4279df7fd42944120f3",
            "task_url": "hZboaeGYcysN2rEmRc_vAEFL3VO2WjaP",
            "time_elapsed": 60068,
            "trial_index": 23,
            "trial_type": "hari-audio-button-response",
            "trialnum": 10
        },
        {
            "button_pressed": null,
            "internal_node_id": "0.0-24.0",
            "rt": null,
            "stimulus": "/static/jspsych/img/correct.png",
            "subject": "5f10e4279df7fd42944120f3",
            "task_url": "hZboaeGYcysN2rEmRc_vAEFL3VO2WjaP",
            "time_elapsed": 61191,
            "trial_index": 24,
            "trial_type": "image-button-response"
        },
        {
            "annot": "{'SNR': '14', 'condition': 'echo-ref'}",
            "button_pressed": "2",
            "cond": 1,
            "correct": true,
            "internal_node_id": "0.0-25.0",
            "rt": 2458.4949999989476,
            "stimulus": "https://speech-in-noise-test.s3.us-east-2.amazonaws.com/audios/wordInNoise/follow-up/echo-ref_14_43_3_oqhOZCCkjC8eEmFC.wav",
            "subject": "5f10e4279df7fd42944120f3",
            "task_url": "hZboaeGYcysN2rEmRc_vAEFL3VO2WjaP",
            "time_elapsed": 64265,
            "trial_index": 25,
            "trial_type": "hari-audio-button-response",
            "trialnum": 11
        },
        {
            "button_pressed": null,
            "internal_node_id": "0.0-26.0",
            "rt": null,
            "stimulus": "/static/jspsych/img/correct.png",
            "subject": "5f10e4279df7fd42944120f3",
            "task_url": "hZboaeGYcysN2rEmRc_vAEFL3VO2WjaP",
            "time_elapsed": 65384,
            "trial_index": 26,
            "trial_type": "image-button-response"
        },
        {
            "annot": "{'SNR': '2', 'condition': 'echo-ref'}",
            "button_pressed": "5",
            "cond": 2,
            "correct": false,
            "internal_node_id": "0.0-27.0",
            "rt": 5180.65999999817,
            "stimulus": "https://speech-in-noise-test.s3.us-east-2.amazonaws.com/audios/wordInNoise/follow-up/echo-ref_2_37_3_plRsoSX3huzGolpe.wav",
            "subject": "5f10e4279df7fd42944120f3",
            "task_url": "hZboaeGYcysN2rEmRc_vAEFL3VO2WjaP",
            "time_elapsed": 71171,
            "trial_index": 27,
            "trial_type": "hari-audio-button-response",
            "trialnum": 12
        },
        {
            "button_pressed": null,
            "internal_node_id": "0.0-28.0",
            "rt": null,
            "stimulus": "/static/jspsych/img/wrong.png",
            "subject": "5f10e4279df7fd42944120f3",
            "task_url": "hZboaeGYcysN2rEmRc_vAEFL3VO2WjaP",
            "time_elapsed": 72277,
            "trial_index": 28,
            "trial_type": "image-button-response"
        },
        {
            "annot": "{'SNR': '2', 'condition': 'echo-ref'}",
            "button_pressed": "3",
            "cond": 2,
            "correct": false,
            "internal_node_id": "0.0-29.0",
            "rt": 4171.709999995073,
            "stimulus": "https://speech-in-noise-test.s3.us-east-2.amazonaws.com/audios/wordInNoise/follow-up/echo-ref_2_17_6_Fy4UW9uNKYbO1ZEv.wav",
            "subject": "5f10e4279df7fd42944120f3",
            "task_url": "hZboaeGYcysN2rEmRc_vAEFL3VO2WjaP",
            "time_elapsed": 77055,
            "trial_index": 29,
            "trial_type": "hari-audio-button-response",
            "trialnum": 13
        },
        {
            "button_pressed": null,
            "internal_node_id": "0.0-30.0",
            "rt": null,
            "stimulus": "/static/jspsych/img/wrong.png",
            "subject": "5f10e4279df7fd42944120f3",
            "task_url": "hZboaeGYcysN2rEmRc_vAEFL3VO2WjaP",
            "time_elapsed": 78168,
            "trial_index": 30,
            "trial_type": "image-button-response"
        },
        {
            "annot": "{'SNR': '2', 'condition': 'echo-ref'}",
            "button_pressed": "2",
            "cond": 2,
            "correct": true,
            "internal_node_id": "0.0-31.0",
            "rt": 2353.950000004261,
            "stimulus": "https://speech-in-noise-test.s3.us-east-2.amazonaws.com/audios/wordInNoise/follow-up/echo-ref_2_40_3_IjUpEzxPwBHFCb91.wav",
            "subject": "5f10e4279df7fd42944120f3",
            "task_url": "hZboaeGYcysN2rEmRc_vAEFL3VO2WjaP",
            "time_elapsed": 81128,
            "trial_index": 31,
            "trial_type": "hari-audio-button-response",
            "trialnum": 14
        },
        {
            "button_pressed": null,
            "internal_node_id": "0.0-32.0",
            "rt": null,
            "stimulus": "/static/jspsych/img/correct.png",
            "subject": "5f10e4279df7fd42944120f3",
            "task_url": "hZboaeGYcysN2rEmRc_vAEFL3VO2WjaP",
            "time_elapsed": 82242,
            "trial_index": 32,
            "trial_type": "image-button-response"
        },
        {
            "annot": "{'SNR': '8', 'condition': 'echo-ref'}",
            "button_pressed": "2",
            "cond": 2,
            "correct": false,
            "internal_node_id": "0.0-33.0",
            "rt": 2350.220000000263,
            "stimulus": "https://speech-in-noise-test.s3.us-east-2.amazonaws.com/audios/wordInNoise/follow-up/echo-ref_8_31_2_hCWTDaPteUWcLfq3.wav",
            "subject": "5f10e4279df7fd42944120f3",
            "task_url": "hZboaeGYcysN2rEmRc_vAEFL3VO2WjaP",
            "time_elapsed": 85212,
            "trial_index": 33,
            "trial_type": "hari-audio-button-response",
            "trialnum": 15
        },
        {
            "button_pressed": null,
            "internal_node_id": "0.0-34.0",
            "rt": null,
            "stimulus": "/static/jspsych/img/wrong.png",
            "subject": "5f10e4279df7fd42944120f3",
            "task_url": "hZboaeGYcysN2rEmRc_vAEFL3VO2WjaP",
            "time_elapsed": 86338,
            "trial_index": 34,
            "trial_type": "image-button-response"
        },
        {
            "annot": "{'SNR': '8', 'condition': 'echo-ref'}",
            "button_pressed": "3",
            "cond": 2,
            "correct": true,
            "internal_node_id": "0.0-35.0",
            "rt": 2041.2100000030478,
            "stimulus": "https://speech-in-noise-test.s3.us-east-2.amazonaws.com/audios/wordInNoise/follow-up/echo-ref_8_25_4_JX77Z4OE99rS5Fq6.wav",
            "subject": "5f10e4279df7fd42944120f3",
            "task_url": "hZboaeGYcysN2rEmRc_vAEFL3VO2WjaP",
            "time_elapsed": 88993,
            "trial_index": 35,
            "trial_type": "hari-audio-button-response",
            "trialnum": 16
        },
        {
            "button_pressed": null,
            "internal_node_id": "0.0-36.0",
            "rt": null,
            "stimulus": "/static/jspsych/img/correct.png",
            "subject": "5f10e4279df7fd42944120f3",
            "task_url": "hZboaeGYcysN2rEmRc_vAEFL3VO2WjaP",
            "time_elapsed": 90110,
            "trial_index": 36,
            "trial_type": "image-button-response"
        },
        {
            "annot": "{'SNR': '14', 'condition': 'echo-ref'}",
            "button_pressed": "1",
            "cond": 1,
            "correct": true,
            "internal_node_id": "0.0-37.0",
            "rt": 2788.329999995767,
            "stimulus": "https://speech-in-noise-test.s3.us-east-2.amazonaws.com/audios/wordInNoise/follow-up/echo-ref_14_14_2_Xreh2055wG7VFpcv.wav",
            "subject": "5f10e4279df7fd42944120f3",
            "task_url": "hZboaeGYcysN2rEmRc_vAEFL3VO2WjaP",
            "time_elapsed": 93503,
            "trial_index": 37,
            "trial_type": "hari-audio-button-response",
            "trialnum": 17
        },
        {
            "button_pressed": null,
            "internal_node_id": "0.0-38.0",
            "rt": null,
            "stimulus": "/static/jspsych/img/correct.png",
            "subject": "5f10e4279df7fd42944120f3",
            "task_url": "hZboaeGYcysN2rEmRc_vAEFL3VO2WjaP",
            "time_elapsed": 94637,
            "trial_index": 38,
            "trial_type": "image-button-response"
        },
        {
            "annot": "{'SNR': '-4', 'condition': 'echo-ref'}",
            "button_pressed": "2",
            "cond": 2,
            "correct": false,
            "internal_node_id": "0.0-39.0",
            "rt": 2906.0949999984587,
            "stimulus": "https://speech-in-noise-test.s3.us-east-2.amazonaws.com/audios/wordInNoise/follow-up/echo-ref_-4_18_4_stLQusPXaa44KrqF.wav",
            "subject": "5f10e4279df7fd42944120f3",
            "task_url": "hZboaeGYcysN2rEmRc_vAEFL3VO2WjaP",
            "time_elapsed": 98148,
            "trial_index": 39,
            "trial_type": "hari-audio-button-response",
            "trialnum": 18
        },
        {
            "button_pressed": null,
            "internal_node_id": "0.0-40.0",
            "rt": null,
            "stimulus": "/static/jspsych/img/wrong.png",
            "subject": "5f10e4279df7fd42944120f3",
            "task_url": "hZboaeGYcysN2rEmRc_vAEFL3VO2WjaP",
            "time_elapsed": 99266,
            "trial_index": 40,
            "trial_type": "image-button-response"
        },
        {
            "annot": "{'SNR': '-10', 'condition': 'echo-ref'}",
            "button_pressed": "4",
            "cond": 2,
            "correct": true,
            "internal_node_id": "0.0-41.0",
            "rt": 2666.8900000004214,
            "stimulus": "https://speech-in-noise-test.s3.us-east-2.amazonaws.com/audios/wordInNoise/follow-up/echo-ref_-10_15_5_0ccU28SRjh9kV3H1.wav",
            "subject": "5f10e4279df7fd42944120f3",
            "task_url": "hZboaeGYcysN2rEmRc_vAEFL3VO2WjaP",
            "time_elapsed": 102548,
            "trial_index": 41,
            "trial_type": "hari-audio-button-response",
            "trialnum": 19
        },
        {
            "button_pressed": null,
            "internal_node_id": "0.0-42.0",
            "rt": null,
            "stimulus": "/static/jspsych/img/correct.png",
            "subject": "5f10e4279df7fd42944120f3",
            "task_url": "hZboaeGYcysN2rEmRc_vAEFL3VO2WjaP",
            "time_elapsed": 103664,
            "trial_index": 42,
            "trial_type": "image-button-response"
        },
        {
            "annot": "{'SNR': '14', 'condition': 'echo-ref'}",
            "button_pressed": "0",
            "cond": 1,
            "correct": false,
            "internal_node_id": "0.0-43.0",
            "rt": 2574.0700000023935,
            "stimulus": "https://speech-in-noise-test.s3.us-east-2.amazonaws.com/audios/wordInNoise/follow-up/echo-ref_14_42_2_RFyzr8z6Sd26Q4xI.wav",
            "subject": "5f10e4279df7fd42944120f3",
            "task_url": "hZboaeGYcysN2rEmRc_vAEFL3VO2WjaP",
            "time_elapsed": 106856,
            "trial_index": 43,
            "trial_type": "hari-audio-button-response",
            "trialnum": 20
        },
        {
            "button_pressed": null,
            "internal_node_id": "0.0-44.0",
            "rt": null,
            "stimulus": "/static/jspsych/img/wrong.png",
            "subject": "5f10e4279df7fd42944120f3",
            "task_url": "hZboaeGYcysN2rEmRc_vAEFL3VO2WjaP",
            "time_elapsed": 107978,
            "trial_index": 44,
            "trial_type": "image-button-response"
        }
    ],
    [
        {
            "button_pressed": "0",
            "internal_node_id": "0.0-0.0",
            "rt": 965.9199999878183,
            "stimulus": "Let us adjust the volume one more time for louder sounds. Please lower down your volume first.",
            "subject": "5eb2d579ed24d507082b07a2",
            "task_url": "hZboaeGYcysN2rEmRc_vAEFL3VO2WjaP",
            "time_elapsed": 968,
            "trial_index": 0,
            "trial_type": "html-button-response"
        },
        {
            "button_pressed": "0",
            "internal_node_id": "0.0-1.0",
            "rt": 2021.4450000203215,
            "stimulus": "https://speech-in-noise-test.s3.us-east-2.amazonaws.com/audios/wordInNoise/follow-up/volume.wav",
            "subject": "5eb2d579ed24d507082b07a2",
            "task_url": "hZboaeGYcysN2rEmRc_vAEFL3VO2WjaP",
            "time_elapsed": 3597,
            "trial_index": 1,
            "trial_type": "hari-audio-button-response"
        },
        {
            "button_pressed": "0",
            "internal_node_id": "0.0-2.0",
            "rt": 2579.505000001518,
            "stimulus": "Is the right headphone in your right ear, and the left headphone in your left ear? It is very important!",
            "subject": "5eb2d579ed24d507082b07a2",
            "task_url": "hZboaeGYcysN2rEmRc_vAEFL3VO2WjaP",
            "time_elapsed": 6784,
            "trial_index": 2,
            "trial_type": "html-button-response"
        },
        {
            "button_pressed": "0",
            "internal_node_id": "0.0-3.0",
            "rt": 1080.5049999908078,
            "stimulus": "This section is an extended version of previous task, which is clicking on the <strong>WORD</strong> prompted by the voice. <p></p>In cases where you can not hear the word, just give your best guess.",
            "subject": "5eb2d579ed24d507082b07a2",
            "task_url": "hZboaeGYcysN2rEmRc_vAEFL3VO2WjaP",
            "time_elapsed": 8472,
            "trial_index": 3,
            "trial_type": "html-button-response"
        },
        {
            "button_pressed": "0",
            "internal_node_id": "0.0-4.0",
            "rt": 1040.724999998929,
            "stimulus": "When you are ready, click <strong>Continue</strong> to hear the first word.",
            "subject": "5eb2d579ed24d507082b07a2",
            "task_url": "hZboaeGYcysN2rEmRc_vAEFL3VO2WjaP",
            "time_elapsed": 10115,
            "trial_index": 4,
            "trial_type": "html-button-response"
        },
        {
            "annot": "{'SNR': '8', 'condition': 'echo-ref'}",
            "button_pressed": "2",
            "cond": 2,
            "correct": false,
            "internal_node_id": "0.0-5.0",
            "rt": 4466.519999987213,
            "stimulus": "https://speech-in-noise-test.s3.us-east-2.amazonaws.com/audios/wordInNoise/follow-up/echo-ref_8_29_6_Pkii61skZHKYU8DM.wav",
            "subject": "5eb2d579ed24d507082b07a2",
            "task_url": "hZboaeGYcysN2rEmRc_vAEFL3VO2WjaP",
            "time_elapsed": 15188,
            "trial_index": 5,
            "trial_type": "hari-audio-button-response",
            "trialnum": 1
        },
        {
            "button_pressed": null,
            "internal_node_id": "0.0-6.0",
            "rt": null,
            "stimulus": "/static/jspsych/img/wrong.png",
            "subject": "5eb2d579ed24d507082b07a2",
            "task_url": "hZboaeGYcysN2rEmRc_vAEFL3VO2WjaP",
            "time_elapsed": 16300,
            "trial_index": 6,
            "trial_type": "image-button-response"
        },
        {
            "annot": "{'SNR': '-4', 'condition': 'echo-ref'}",
            "button_pressed": "5",
            "cond": 2,
            "correct": true,
            "internal_node_id": "0.0-7.0",
            "rt": 6821.759999991627,
            "stimulus": "https://speech-in-noise-test.s3.us-east-2.amazonaws.com/audios/wordInNoise/follow-up/echo-ref_-4_33_6_5ngbxUax3jqKTlt0.wav",
            "subject": "5eb2d579ed24d507082b07a2",
            "task_url": "hZboaeGYcysN2rEmRc_vAEFL3VO2WjaP",
            "time_elapsed": 23728,
            "trial_index": 7,
            "trial_type": "hari-audio-button-response",
            "trialnum": 2
        },
        {
            "button_pressed": null,
            "internal_node_id": "0.0-8.0",
            "rt": null,
            "stimulus": "/static/jspsych/img/correct.png",
            "subject": "5eb2d579ed24d507082b07a2",
            "task_url": "hZboaeGYcysN2rEmRc_vAEFL3VO2WjaP",
            "time_elapsed": 24839,
            "trial_index": 8,
            "trial_type": "image-button-response"
        },
        {
            "annot": "{'SNR': '14', 'condition': 'echo-ref'}",
            "button_pressed": "0",
            "cond": 1,
            "correct": true,
            "internal_node_id": "0.0-9.0",
            "rt": 5956.724999996368,
            "stimulus": "https://speech-in-noise-test.s3.us-east-2.amazonaws.com/audios/wordInNoise/follow-up/echo-ref_14_26_1_m6WfPY21Ix2lJ4Bf.wav",
            "subject": "5eb2d579ed24d507082b07a2",
            "task_url": "hZboaeGYcysN2rEmRc_vAEFL3VO2WjaP",
            "time_elapsed": 31402,
            "trial_index": 9,
            "trial_type": "hari-audio-button-response",
            "trialnum": 3
        },
        {
